time,seconds_elapsed,z,y,x
1771038049444049200,0.197049072265625,0.4897804260253906,0.007505893707275391,0.1877533197402954
1771038049463015200,0.21601513671875,0.8393659591674805,-0.3302724361419678,0.6817646622657776
1771038049481981200,0.234981201171875,-0.044185638427734375,-0.21056842803955078,0.8346548676490784
1771038049500947200,0.253947265625,-1.0499582290649414,0.15226221084594727,-0.224787175655365
1771038049519913500,0.27291357421875,-1.2427644729614258,0.024811983108520508,-1.6541322469711304
1771038049538879500,0.29187939453125,-0.27854442596435547,-0.1771712303161621,-1.873456358909607
1771038049557845800,0.310845703125,-0.27730655670166016,-1.0570473670959473,-1.171579122543335
1771038049576811800,0.329811767578125,-0.794682502746582,-0.2009577751159668,-1.8770029544830322
1771038049595778000,0.348778076171875,-0.46566009521484375,0.7786896228790283,-0.8503587245941162
1771038049614744000,0.367744140625,0.708953857421875,-0.5472316741943359,-0.44056904315948486
1771038049633710000,0.3867099609375,1.775787353515625,-2.6793158054351807,-0.7455768585205078
1771038049652676000,0.405676025390625,2.2706384658813477,-3.4871859550476074,-0.6214083433151245
1771038049671642400,0.424642333984375,1.489166259765625,-3.142519235610962,-1.7303428649902344
1771038049690608400,0.4436083984375,-0.09134674072265625,-2.874568223953247,-0.8992206454277039
1771038049709574400,0.462574462890625,-1.1914606094360352,-1.3797214031219482,0.9393388032913208
1771038049728540400,0.48154052734375,-0.7376880645751953,-0.17593884468078613,1.2578895092010498
1771038049747506700,0.500506591796875,1.3504095077514648,0.14106124639511108,0.773419201374054
1771038049766472700,0.51947265625,2.5658035278320312,0.07920271158218384,1.274346947669983
1771038049785439000,0.53843896484375,0.7664461135864258,-0.8644671440124512,1.2617602348327637
1771038049804405000,0.557405029296875,-1.5456428527832031,-0.2628687620162964,0.9619464874267578
1771038049823371000,0.57637109375,-4.812275409698486,0.3579106330871582,-0.5158082246780396
1771038049842337300,0.595337158203125,-6.0243449211120605,3.4627671241760254,-1.9849858283996582
1771038049861303300,0.61430322265625,-3.3924741744995117,0.8418686389923096,0.4410874843597412
1771038049880269300,0.633269287109375,-1.3401765823364258,0.4003288745880127,1.1857948303222656
1771038049899235300,0.6522353515625,-0.6254215240478516,0.13746094703674316,-0.9696223735809326
1771038049918201600,0.67120166015625,-1.3758001327514648,-0.12634706497192383,-3.003291606903076
1771038049937167600,0.690167724609375,-2.897703170776367,0.02029252052307129,-1.5973358154296875
1771038049956133600,0.709133544921875,-1.5381574630737305,0.5900137424468994,-1.7365671396255493
1771038049975100000,0.728099853515625,-1.1257543563842773,-0.1350259780883789,-1.4957659244537354
1771038049994066000,0.74706591796875,-1.2187485694885254,0.7601640224456787,-0.6843569278717041
1771038050013032000,0.766031982421875,-0.5278635025024414,1.1100184917449951,-1.4494792222976685
1771038050031998000,0.784998046875,-0.34799957275390625,1.1646950244903564,-1.509726881980896
1771038050050964200,0.803964111328125,0.3340158462524414,0.9982562065124512,-1.081009030342102
1771038050069930200,0.82293017578125,0.4561004638671875,1.7034096717834473,-0.7069244980812073
1771038050088896300,0.841896240234375,0.15482521057128906,2.1451332569122314,-0.5984227061271667
1771038050107862500,0.860862548828125,-0.7800941467285156,2.5647711753845215,-0.20813840627670288
1771038050126828500,0.87982861328125,0.2323150634765625,1.8873507976531982,0.6488543152809143
1771038050145794600,0.898794677734375,5.406167030334473,0.07614433765411377,-0.2586269974708557
1771038050164760600,0.917760498046875,8.711969375610352,-1.8997632265090942,0.07505136728286743
1771038050183726600,0.9367265625,7.976718902587891,-2.0096421241760254,-0.9196170568466187
1771038050202692900,0.95569287109375,5.108087539672852,-1.795478105545044,-0.8271006345748901
1771038050221659000,0.974658935546875,0.901768684387207,-1.28315269947052,-0.17696130275726318
1771038050240625000,0.993625,-1.6244935989379883,-0.2774864435195923,0.46430259943008423
1771038050259591200,1.012591064453125,-2.304269790649414,0.26933062076568604,0.5469387769699097
1771038050278557200,1.03155712890625,-3.2029104232788086,-0.34613126516342163,-0.7924786806106567
1771038050297523200,1.050523193359375,-3.0419082641601562,-1.7335087060928345,0.29179179668426514
1771038050316489200,1.0694892578125,-3.1620635986328125,-1.4337027072906494,1.1105539798736572
1771038050335455200,1.088455322265625,-3.067612648010254,-0.044418275356292725,3.8045315742492676
1771038050354421500,1.10742138671875,-3.2596254348754883,0.8513991832733154,5.338160991668701
1771038050373387500,1.126387451171875,0.15162372589111328,0.8349858522415161,5.245449066162109
1771038050392353800,1.145353759765625,-1.2065792083740234,-1.430965542793274,3.0162312984466553
1771038050411319800,1.16431982421875,-3.806546688079834,-4.079150199890137,1.5657520294189453
1771038050430285800,1.183285888671875,-3.3339028358459473,-3.37784743309021,3.5432262420654297
1771038050449251800,1.202251953125,-7.477611541748047,-3.805353879928589,8.335308074951172
1771038050468217900,1.2212177734375,-6.3100810050964355,-1.8928451538085938,9.66943359375
1771038050487184000,1.240183837890625,-3.494467258453369,-5.078830242156982,7.252257347106934
1771038050506150100,1.259150146484375,-7.565199375152588,-6.977230072021484,3.6874992847442627
1771038050525116200,1.2781162109375,-5.982154846191406,-5.137041091918945,6.234023094177246
1771038050544082200,1.297082275390625,-4.207057952880859,-4.705598831176758,7.970457553863525
1771038050563048400,1.31604833984375,-2.3465378284454346,-7.822271347045898,6.804119110107422
1771038050582014500,1.335014404296875,1.6528396606445312,-9.997034072875977,0.5685887336730957
1771038050600980500,1.35398046875,3.159306764602661,-10.103462219238281,-3.0505452156066895
1771038050619946500,1.372946533203125,1.5187313556671143,-9.42331600189209,-6.322444915771484
1771038050638912500,1.39191259765625,-2.1947290897369385,-9.448184967041016,-4.782625198364258
1771038050657878800,1.410878662109375,-7.344385623931885,-8.634005546569824,-6.490180492401123
1771038050676844800,1.4298447265625,-6.569736480712891,-8.50303840637207,-21.88324546813965
1771038050695810800,1.448810791015625,-2.05277419090271,-10.844488143920898,-36.38418960571289
1771038050714776800,1.46777685546875,6.650069236755371,-6.994509696960449,-35.426231384277344
1771038050733742800,1.486742919921875,10.12761116027832,2.4821014404296875,-25.671167373657227
1771038050752709000,1.505709228515625,10.462926864624023,8.36604118347168,-17.85902976989746
1771038050771675100,1.524675048828125,19.1329288482666,8.905500411987305,-13.950629234313965
1771038050830916600,1.58391650390625,0.8833312392234802,4.115044593811035,-0.44731807708740234
1771038050849883000,1.6028828125,1.231180191040039,6.174746513366699,-0.4425201416015625
1771038050868849000,1.621848876953125,-1.1544289588928223,4.691190242767334,-0.04648590087890625
1771038050887815000,1.64081494140625,-9.252152442932129,6.996298789978027,7.980949878692627
1771038050906781000,1.659781005859375,-7.577186107635498,5.374917507171631,11.669462203979492
1771038050925747000,1.678746826171875,-6.5998854637146,2.210787773132324,15.573746681213379
1771038050944713200,1.697713134765625,-1.1440271139144897,-0.43976926803588867,15.899984359741211
1771038050963679200,1.71667919921875,-0.6529092788696289,0.27781009674072266,12.488234519958496
1771038050982645200,1.735645263671875,-1.7075048685073853,-1.716991662979126,10.652429580688477
1771038051001611300,1.754611328125,2.319946765899658,1.8080195188522339,-0.0844736099243164
1771038051020577500,1.77357763671875,-14.18576431274414,1.769534945487976,1.7462201118469238
1771038051039543600,1.79254345703125,-9.029435157775879,-18.876689910888672,-9.967230796813965
1771038051058509600,1.811509521484375,-0.3978266716003418,0.2576148509979248,0.3156871795654297
1771038051077475600,1.8304755859375,-6.876898288726807,-5.193872451782227,-12.96017074584961
1771038051096441600,1.849441650390625,-4.910647869110107,-9.441981315612793,-5.111326694488525
1771038051115408000,1.868407958984375,7.997367858886719,-8.60886001586914,-4.068874835968018
1771038051134374000,1.887373779296875,7.733518123626709,-3.6827077865600586,1.4592957496643066
1771038051153340000,1.90633984375,8.899799346923828,-4.07466983795166,9.452796936035156
1771038051172306000,1.925305908203125,7.880555629730225,-1.9765653610229492,8.49563980102539
1771038051191272000,1.94427197265625,7.841679096221924,-9.849029541015625,8.161360740661621
1771038051210238200,1.96323828125,-0.8260517120361328,-9.698657989501953,-0.3246781826019287
1771038051229204200,1.982204345703125,-12.069723129272461,-14.655719757080078,-15.775355339050293
1771038051248170200,2.001170166015625,-10.890644073486328,-5.330671310424805,-23.719804763793945
1771038051267136300,2.02013623046875,4.300899505615234,4.755532264709473,-17.089521408081055
1771038051286102500,2.0391025390625,0.006953716278076172,9.484183311462402,-3.250828504562378
1771038051305068500,2.058068603515625,-7.449974060058594,12.212617874145508,0.04094958305358887
1771038051324034600,2.07703466796875,-6.3719987869262695,16.517398834228516,0.9977469444274902
1771038051343000600,2.09600048828125,-6.0921149253845215,7.3642191886901855,2.7638888359069824
1771038051361966600,2.114966552734375,-4.650763511657715,4.738595962524414,2.013741970062256
1771038051380932900,2.133932861328125,-4.4438886642456055,6.339353084564209,2.6293089389801025
1771038051399899000,2.15289892578125,-2.059697389602661,7.077979564666748,2.5972447395324707
1771038051418865000,2.171864990234375,4.9325056076049805,7.508008003234863,1.2269161939620972
1771038051437831000,2.190830810546875,0.6151930093765259,8.01986312866211,0.21931254863739014
1771038051456797200,2.209797119140625,6.020656585693359,6.118210792541504,0.0462186336517334
1771038051475763200,2.22876318359375,-3.493363857269287,4.354660511016846,-1.582094669342041
1771038051494729200,2.247729248046875,-27.687482833862305,-15.949203491210938,1.1101725101470947
1771038051513695200,2.2666953125,-21.348249435424805,-46.539955139160156,2.221120595932007
1771038051532661500,2.28566162109375,24.645225524902344,-68.00349426269531,3.9322128295898438
1771038051551627500,2.30462744140625,-14.714739799499512,-11.674654960632324,2.1976442337036133
1771038051570593500,2.323593505859375,-5.583157539367676,0.027568817138671875,-9.189593315124512
1771038051589559600,2.3425595703125,-9.20348834991455,1.4536142349243164,-1.2947745323181152
1771038051608525800,2.36152587890625,-8.877823829650879,7.187914848327637,-1.3609910011291504
1771038051627491800,2.380491943359375,-10.258861541748047,12.707817077636719,1.1847519874572754
1771038051646457900,2.399457763671875,-6.35107421875,14.167217254638672,3.3323683738708496
1771038051665424000,2.418423828125,-8.031136512756348,13.791664123535156,2.905791997909546
1771038051684390100,2.43739013671875,-9.941254615783691,13.145313262939453,1.360244631767273
1771038051703356200,2.456356201171875,-4.2525129318237305,11.6190185546875,1.0070831775665283
1771038051722322200,2.475322265625,-1.5020173788070679,10.660794258117676,1.2965166568756104
1771038051741288400,2.494288330078125,44.513458251953125,7.6820502281188965,6.855319976806641
1771038051760254500,2.51325439453125,19.681621551513672,-0.5568962097167969,5.202994346618652
1771038051779220500,2.532220458984375,-8.698247909545898,1.5686702728271484,3.0009653568267822
1771038051798186800,2.551186767578125,-30.7678165435791,3.0082955360412598,-8.44074535369873
1771038051817152800,2.57015283203125,-15.122035026550293,4.064072132110596,-5.561685085296631
1771038051836118800,2.589118896484375,-6.286734580993652,4.782629013061523,-0.9565585255622864
1771038051855084800,2.608084716796875,-4.317556858062744,4.2832536697387695,0.43294674158096313
1771038051874051000,2.627051025390625,-3.0809381008148193,4.234381675720215,1.6601974964141846
1771038051893017000,2.64601708984375,-5.005148410797119,0.2064361572265625,4.014340877532959
1771038051911983000,2.664983154296875,-11.83496379852295,-12.563421249389648,4.58533239364624
1771038051930949400,2.683949462890625,-27.554834365844727,-43.353240966796875,-9.64224624633789
1771038051949915400,2.702915283203125,-18.724721908569336,-45.19361114501953,-11.9915771484375
1771038051968881400,2.72188134765625,-0.8101725578308105,-29.429136276245117,-10.280817031860352
1771038051987847700,2.74084765625,42.3734245300293,-3.3100967407226562,-8.870025634765625
1771038052006813700,2.759813720703125,14.994528770446777,-2.6417617797851562,-6.817126750946045
1771038052025779700,2.77877978515625,6.331129550933838,0.04516410827636719,-4.691319465637207
1771038052044746000,2.79774609375,4.604935169219971,5.096515655517578,-1.8288052082061768
1771038052063712000,2.8167119140625,9.907174110412598,10.86233139038086,1.3361817598342896
1771038052082678300,2.83567822265625,11.007645606994629,13.854846000671387,1.7465368509292603
1771038052101644300,2.854644287109375,4.367757797241211,12.841917037963867,2.2525978088378906
1771038052120610300,2.8736103515625,0.10534411668777466,10.933205604553223,2.181912660598755
1771038052139576600,2.89257666015625,1.0895729064941406,10.66537857055664,2.9367995262145996
1771038052158542600,2.91154248046875,-1.6483485698699951,10.298142433166504,3.388843059539795
1771038052177508600,2.930508544921875,-1.6898934841156006,9.235747337341309,2.4203929901123047
1771038052196475000,2.949474853515625,-1.0068776607513428,7.641211032867432,1.6635361909866333
1771038052215441000,2.96844091796875,-3.548797845840454,0.4990682601928711,1.613525390625
1771038052234407200,2.9874072265625,16.239242553710938,-45.53556823730469,-6.788004398345947
1771038052253373200,3.006373291015625,16.797834396362305,-71.40621185302734,-13.930850982666016
1771038052272339200,3.025339111328125,-9.625585556030273,-25.005216598510742,-3.00219988822937
1771038052291305500,3.044305419921875,-14.939371109008789,-4.23210334777832,-3.3710083961486816
1771038052310271500,3.063271484375,-13.050064086914062,5.453798294067383,-1.316732406616211
1771038052329237800,3.08223779296875,-11.314240455627441,9.354055404663086,-1.252503752708435
1771038052348203800,3.101203857421875,-9.012054443359375,9.263463973999023,-1.8469433784484863
1771038052367170000,3.120170166015625,-3.623903274536133,10.293680191040039,-0.29485976696014404
1771038052386136000,3.139135986328125,-3.7772107124328613,11.57817554473877,2.2842354774475098
1771038052405102000,3.15810205078125,-10.377532005310059,13.092742919921875,3.5956475734710693
1771038052424068400,3.177068359375,-10.749874114990234,14.36599349975586,2.914499282836914
1771038052443034600,3.19603466796875,-3.824012517929077,12.368819236755371,1.1302626132965088
1771038052462000600,3.215000732421875,-1.3064404726028442,10.723184585571289,0.9170833826065063
1771038052480967000,3.233966796875,7.620635032653809,10.5969877243042,2.366105556488037
1771038052499933000,3.252932861328125,21.43128204345703,1.3937172889709473,0.6533313989639282
1771038052518899200,3.271899169921875,5.223694324493408,1.4170022010803223,2.867953300476074
1771038052537865200,3.290865234375,-1.9354069232940674,6.287836074829102,1.6888707876205444
1771038052556831500,3.30983154296875,-8.508363723754883,8.384833335876465,5.455850601196289
1771038052575797500,3.328797607421875,-16.597028732299805,1.7724246978759766,10.533812522888184
1771038052594763800,3.347763671875,-31.051979064941406,-6.59768009185791,10.48210334777832
1771038052613729800,3.366729736328125,-15.564071655273438,-9.993261337280273,7.900278091430664
1771038052632696000,3.385696044921875,-8.590166091918945,-11.786663055419922,7.386195182800293
1771038052651662000,3.404662109375,-6.878020763397217,-13.95465087890625,6.535524845123291
1771038052670628400,3.42362841796875,-15.308141708374023,-26.686704635620117,-4.461825370788574
1771038052689594600,3.4425947265625,-11.791297912597656,-31.932266235351562,-14.344762802124023
1771038052708560600,3.461560546875,0.9196962118148804,-26.044708251953125,-15.497251510620117
1771038052727527000,3.48052685546875,56.363426208496094,-7.236574172973633,-17.55451202392578
1771038052746493000,3.499492919921875,10.602038383483887,-3.8555335998535156,-11.841195106506348
1771038052765459200,3.518459228515625,5.467235565185547,1.214034080505371,-7.036552429199219
1771038052784425200,3.53742529296875,6.054049491882324,4.391782283782959,-5.5174760818481445
1771038052803391500,3.5563916015625,9.610048294067383,9.06055736541748,-4.578141212463379
1771038052822357800,3.575357666015625,9.248031616210938,11.617486953735352,-3.624476432800293
1771038052841323800,3.59432373046875,4.684606552124023,11.656330108642578,-2.7604336738586426
1771038052860290000,3.6132900390625,4.055009841918945,10.722574234008789,-1.7488892078399658
1771038052879256300,3.63225634765625,3.156548500061035,10.6151704788208,0.27682000398635864
1771038052898222300,3.651222412109375,-2.9392573833465576,10.708139419555664,1.3595643043518066
1771038052917188600,3.670188720703125,-3.4180402755737305,9.72518253326416,0.36844077706336975
1771038052936155000,3.68915478515625,-3.396289348602295,8.371515274047852,-0.5170353651046753
1771038052955121000,3.708120849609375,-5.636760711669922,6.523765563964844,-1.0140912532806396
1771038052974087200,3.727087158203125,-16.305980682373047,-7.130619049072266,-2.013845205307007
1771038052993053400,3.746053466796875,35.594757080078125,-55.924964904785156,-5.746898651123047
1771038053012019500,3.76501953125,-2.200277328491211,-64.06764221191406,6.544496536254883
1771038053030985700,3.78398583984375,-12.538850784301758,-19.46039390563965,-3.2557992935180664
1771038053049952000,3.802951904296875,-12.223267555236816,0.11800670623779297,-2.5979981422424316
1771038053068918300,3.821918212890625,-9.790596008300781,7.972407341003418,-1.6901633739471436
1771038053087884300,3.84088427734375,-8.544073104858398,10.803506851196289,0.34462106227874756
1771038053106850600,3.8598505859375,-8.664653778076172,11.24386978149414,0.9099322557449341
1771038053125816800,3.87881689453125,-9.636831283569336,11.445658683776855,0.5135890245437622
1771038053144783000,3.897783203125,-13.15484619140625,13.033247947692871,-0.12468725442886353
1771038053163749000,3.9167490234375,-14.976166725158691,13.553133010864258,-0.6556081175804138
1771038053182715400,3.93571533203125,-3.24001407623291,12.710384368896484,-1.9278804063796997
1771038053201681700,3.954681640625,-1.2816927433013916,11.460320472717285,-1.4330995082855225
1771038053220648000,3.97364794921875,-1.8467873334884644,10.38133430480957,-0.7456809878349304
1771038053239614000,3.992614013671875,41.57802963256836,1.865678310394287,6.7388014793396
1771038053258580200,4.011580322265625,13.052382469177246,2.863009452819824,2.028109550476074
1771038053277546500,4.03054638671875,-6.1678876876831055,6.585193634033203,-1.5375899076461792
1771038053296512800,4.0495126953125,-7.887206077575684,10.3719482421875,-2.5313687324523926
1771038053315479000,4.06847900390625,-21.19052505493164,6.095361709594727,2.7377545833587646
1771038053334445000,4.087445068359375,-27.521324157714844,3.8041648864746094,4.599985599517822
1771038053353411300,4.106411376953125,-12.20476245880127,0.19664764404296875,4.472170829772949
1771038053372377600,4.125377685546875,-2.8789281845092773,-6.980044364929199,5.991088390350342
1771038053391343900,4.14434375,-8.715808868408203,-20.58462905883789,13.477339744567871
1771038053410310100,4.16331005859375,-25.898611068725586,-41.31022262573242,14.863489151000977
1771038053429276400,4.1822763671875,-28.757659912109375,-49.78181076049805,4.931333541870117
1771038053448242700,4.20124267578125,133.86367797851562,-40.25498962402344,-11.107030868530273
1771038053467208700,4.220208740234375,37.24748229980469,-8.272571563720703,-4.240495204925537
1771038053486175000,4.239175048828125,12.2323637008667,-3.471132278442383,-3.4778974056243896
1771038053505141200,4.258141357421875,7.009496688842773,1.2631893157958984,-2.0573620796203613
1771038053524107500,4.277107421875,3.3477935791015625,6.378726005554199,-2.3044681549072266
1771038053543073800,4.29607373046875,10.030214309692383,11.299416542053223,-3.689645290374756
1771038053562040000,4.3150400390625,6.413944244384766,11.881999015808105,-3.824172258377075
1771038053581006300,4.33400634765625,-0.42645007371902466,10.579076766967773,-1.3469114303588867
1771038053599972400,4.352972412109375,-1.5561530590057373,10.08969783782959,-0.22718501091003418
1771038053618938600,4.371938720703125,-1.8799761533737183,10.12489128112793,0.4218381643295288
1771038053637905000,4.39090478515625,-1.8681377172470093,8.776876449584961,-0.20721468329429626
1771038053656871200,4.40987109375,-5.81217622756958,6.9760026931762695,-0.6981245279312134
1771038053675837400,4.42883740234375,-21.276653289794922,-4.220588684082031,-2.384582042694092
1771038053694803700,4.4478037109375,42.58774185180664,-64.80145263671875,-23.5428409576416
1771038053713770000,4.46677001953125,-7.813822269439697,-64.78583526611328,-9.419637680053711
1771038053732736300,4.485736328125,-24.16249656677246,-22.11906623840332,-15.80247974395752
1771038053751702500,4.50470263671875,-12.892720222473145,-1.049692153930664,-5.587569236755371
1771038053770668800,4.523668701171875,-15.522830963134766,4.2614850997924805,-1.4963680505752563
1771038053789635000,4.542635009765625,-17.192752838134766,6.938234806060791,2.82149338722229
1771038053808601300,4.561601318359375,-11.356443405151367,7.870329856872559,4.425757884979248
1771038053827567600,4.580567626953125,-12.852937698364258,10.065919876098633,3.371612548828125
1771038053846534000,4.599533935546875,-21.181482315063477,14.213438034057617,4.225325584411621
1771038053865500200,4.618500244140625,-18.95722770690918,15.870976448059082,4.543971061706543
1771038053884466400,4.637466552734375,-6.197193145751953,14.224664688110352,1.5895377397537231
1771038053903432700,4.6564326171875,-2.4328179359436035,14.91635513305664,2.299525499343872
1771038053922399000,4.67539892578125,18.58650016784668,10.305646896362305,11.496248245239258
1771038053941365200,4.694365234375,27.444955825805664,-3.0612363815307617,9.946671485900879
1771038053960331500,4.71333154296875,10.43768310546875,2.425832748413086,3.91265869140625
1771038053979297800,4.7322978515625,-9.52680778503418,9.332205772399902,0.8985433578491211
1771038053998264000,4.75126416015625,-35.63705062866211,6.499752998352051,5.690754413604736
1771038054017230300,4.770230224609375,-38.227264404296875,0.5650691986083984,5.358583450317383
1771038054036196600,4.789196533203125,-17.136476516723633,-0.9289455413818359,4.903695583343506
1771038054055163000,4.808162841796875,-10.786953926086426,-3.2800827026367188,4.057104587554932
1771038054074129200,4.827129150390625,-11.647397994995117,-12.99791431427002,4.5418314933776855
1771038054093095400,4.846095458984375,-14.04280948638916,-32.27112579345703,5.281842231750488
1771038054112061700,4.865061767578125,-21.629257202148438,-49.28162384033203,-2.5286478996276855
1771038054131028000,4.884028076171875,-4.907288074493408,-47.257957458496094,-7.329448223114014
1771038054149994200,4.902994140625,68.11689758300781,-14.837157249450684,-9.578033447265625
1771038054168960500,4.92196044921875,12.290114402770996,-6.514817237854004,-6.0160017013549805
1771038054187926800,4.9409267578125,7.147629737854004,-0.06193351745605469,-4.5123090744018555
1771038054206893000,4.95989306640625,18.96489906311035,6.377856254577637,-2.2111504077911377
1771038054225859300,4.978859375,17.415958404541016,9.503373146057129,-2.8346407413482666
1771038054244825600,4.99782568359375,10.060027122497559,10.927427291870117,-4.5811567306518555
1771038054263791900,5.0167919921875,3.2035906314849854,11.300073623657227,-4.94736385345459
1771038054282758100,5.035758056640625,-2.47183895111084,10.45459270477295,-3.33610463142395
1771038054301724400,5.054724365234375,-2.288327693939209,10.83940315246582,-1.7077984809875488
1771038054320690700,5.073690673828125,1.1248804330825806,11.641904830932617,-0.690114438533783
1771038054339657200,5.0926572265625,0.4004581570625305,9.400067329406738,-1.0352967977523804
1771038054358623500,5.11162353515625,-3.1613619327545166,8.486419677734375,-1.244895577430725
1771038054377589800,5.13058984375,-4.992482662200928,5.926438331604004,-1.4592665433883667
1771038054396556000,5.14955615234375,8.186853408813477,-20.71627426147461,-3.710571527481079
1771038054415522300,5.168522216796875,10.000516891479492,-74.43399810791016,-3.7016162872314453
1771038054434488600,5.187488525390625,-7.106998920440674,-58.11050033569336,-9.770647048950195
1771038054453454800,5.206454833984375,-10.552763938903809,-14.985733985900879,-3.7944750785827637
1771038054472421000,5.225421142578125,-15.246284484863281,0.1638345718383789,-0.5485069751739502
1771038054491387400,5.244387451171875,-13.09257984161377,6.707292556762695,-0.6595708131790161
1771038054510353700,5.263353759765625,-11.222478866577148,8.541661262512207,-1.4021040201187134
1771038054529320000,5.28231982421875,-10.28673267364502,10.236023902893066,-1.5498385429382324
1771038054548286200,5.3012861328125,-12.245866775512695,12.172813415527344,-1.1714773178100586
1771038054567252700,5.320252685546875,-19.703990936279297,14.169452667236328,-1.0055609941482544
1771038054586219000,5.339218994140625,-15.698358535766602,14.87958812713623,0.8839411735534668
1771038054605185300,5.358185302734375,-4.834869384765625,13.864673614501953,0.5169961452484131
1771038054624151600,5.377151611328125,-1.4169962406158447,14.048605918884277,0.8574788570404053
1771038054643117800,5.396117919921875,0.45670461654663086,13.421807289123535,5.606916427612305
1771038054662084000,5.415083984375,31.527423858642578,1.906900405883789,14.20382022857666
1771038054681050400,5.43405029296875,13.79945182800293,0.08094978332519531,8.934782028198242
1771038054700016600,5.4530166015625,5.682962417602539,5.267272472381592,3.5871737003326416
1771038054718983200,5.471983154296875,-8.018221855163574,10.901605606079102,4.807933330535889
1771038054737949400,5.490949462890625,-32.41952896118164,5.002699851989746,9.355720520019531
1771038054756915700,5.509915771484375,-39.111942291259766,0.5181035995483398,8.573805809020996
1771038054775882000,5.528882080078125,-16.159975051879883,-1.344161033630371,6.532804489135742
1771038054794848300,5.54784814453125,-9.977286338806152,-5.626947402954102,5.280008792877197
1771038054813814500,5.566814453125,-13.206291198730469,-21.709049224853516,7.094341278076172
1771038054832780800,5.58578076171875,-25.83860969543457,-47.80253982543945,3.662210464477539
1771038054861230300,5.614230224609375,-11.596177101135254,-43.318275451660156,-6.607962608337402
1771038054880196600,5.633196533203125,78.95988464355469,-18.475797653198242,-12.981232643127441
1771038054899163000,5.652162841796875,18.093976974487305,-6.577098846435547,-6.055530548095703
1771038054918129200,5.671129150390625,7.083981990814209,0.6702661514282227,-3.9175662994384766
1771038054937095400,5.690095458984375,8.966996192932129,4.3442463874816895,-3.173736810684204
1771038054956062000,5.70906201171875,15.487720489501953,9.105936050415039,-2.8790388107299805
1771038054975028200,5.7280283203125,17.34375762939453,11.44357681274414,-4.091254234313965
1771038054993994500,5.746994384765625,5.638249397277832,11.338547706604004,-3.7535200119018555
1771038055012960800,5.765960693359375,-1.2601048946380615,10.424921035766602,-2.199934482574463
1771038055031927000,5.784927001953125,-2.130063772201538,11.021279335021973,-0.3084070682525635
1771038055050893300,5.803893310546875,0.8967629671096802,12.241830825805664,1.1656934022903442
1771038055069859600,5.822859619140625,-2.0049116611480713,9.524120330810547,-0.8693844079971313
1771038055088826000,5.841826171875,-3.4001266956329346,7.862061977386475,-1.4005311727523804
1771038055107792400,5.86079248046875,-5.201709747314453,4.984843730926514,-1.0967587232589722
1771038055126758700,5.879758544921875,22.195919036865234,-24.739681243896484,-4.011392593383789
1771038055145725000,5.898724853515625,10.952802658081055,-66.84970092773438,6.762360095977783
1771038055164691200,5.917691162109375,-7.9694061279296875,-59.40785217285156,-3.212860345840454
1771038055183657500,5.936657470703125,-12.361739158630371,-15.726306915283203,-4.463219165802002
1771038055202624000,5.9556240234375,-14.240453720092773,0.9191703796386719,-1.640472650527954
1771038055221590300,5.97459033203125,-12.512359619140625,7.8751115798950195,-1.6860904693603516
1771038055240556500,5.993556640625,-10.543813705444336,9.836434364318848,-1.1358243227005005
1771038055259522800,6.012522705078125,-10.774658203125,11.018078804016113,-1.0016663074493408
1771038055278489000,6.031489013671875,-11.363689422607422,11.799147605895996,-1.6383512020111084
1771038055297455600,6.05045556640625,-18.989551544189453,14.08753776550293,-2.2302489280700684
1771038055316422000,6.069421875,-15.122629165649414,15.964337348937988,-0.32200634479522705
1771038055335388200,6.08838818359375,-4.305830001831055,16.211442947387695,0.8090288639068604
1771038055354354400,6.1073544921875,-2.2430498600006104,16.86117935180664,1.4387898445129395
1771038055373320700,6.12632080078125,15.450663566589355,13.703367233276367,8.233500480651855
1771038055392287000,6.145286865234375,35.2512092590332,0.2885274887084961,8.456747055053711
1771038055411253200,6.164253173828125,7.4502339363098145,1.607701301574707,3.526082754135132
1771038055430219800,6.1832197265625,-6.279958248138428,9.530574798583984,2.0783684253692627
1771038055449186000,6.20218603515625,-22.64101219177246,7.639514446258545,12.822613716125488
1771038055468152300,6.22115234375,-41.32809066772461,0.2427692413330078,10.428900718688965
1771038055487118600,6.24011865234375,-21.651826858520508,-1.4371957778930664,10.308330535888672
1771038055506084900,6.2590849609375,-9.264086723327637,-3.317896842956543,8.420281410217285
1771038055525051400,6.278051513671875,-8.76185417175293,-12.814068794250488,7.8808979988098145
1771038055544017400,6.297017333984375,-14.479278564453125,-35.3104248046875,9.42932415008545
1771038055562984000,6.31598388671875,-22.84706687927246,-51.1697883605957,4.422191143035889
1771038055581950200,6.3349501953125,8.282605171203613,-52.927677154541016,-0.5566644668579102
1771038055600916500,6.35391650390625,67.66942596435547,-17.845104217529297,-10.795284271240234
1771038055619882800,6.3728828125,11.891447067260742,-6.517036437988281,-6.3613481521606445
1771038055638849000,6.39184912109375,4.512650489807129,0.6384658813476562,-4.487137794494629
1771038055657815600,6.410815673828125,11.880538940429688,5.840595245361328,-2.827285051345825
1771038055676781800,6.42978173828125,23.393352508544922,11.624460220336914,-2.485257625579834
1771038055695748000,6.448748046875,14.894916534423828,11.390528678894043,-4.331442356109619
1771038055714714400,6.46771435546875,3.3685219287872314,10.81216812133789,-3.5186069011688232
1771038055733680600,6.4866806640625,0.49912381172180176,10.558507919311523,-1.4707841873168945
1771038055752647200,6.505647216796875,-0.81977379322052,10.770901679992676,0.025048136711120605
1771038055771613400,6.524613525390625,-1.0357606410980225,11.503844261169434,1.2752482891082764
1771038055790579700,6.543579833984375,-0.6484968662261963,10.123977661132812,0.10286837816238403
1771038055809546000,6.5625458984375,-2.7112386226654053,8.107444763183594,-1.0070611238479614
1771038055828512300,6.58151220703125,-4.3622307777404785,5.6668548583984375,-0.16048166155815125
1771038055847478800,6.600478759765625,-11.360414505004883,-14.841387748718262,1.6361055374145508
1771038055866445000,6.619445068359375,27.75360679626465,-73.52525329589844,3.201969623565674
1771038055885411300,6.638411376953125,-3.980949640274048,-61.5285530090332,-2.694253444671631
1771038055904377600,6.657377685546875,-13.208999633789062,-14.044631004333496,-2.940387725830078
1771038055923344000,6.67634375,-14.557580947875977,2.1321563720703125,-0.6291235685348511
1771038055942310400,6.695310302734375,-11.600057601928711,9.283720016479492,-1.520965337753296
1771038055961276700,6.714276611328125,-10.243033409118652,11.38464641571045,-1.780369758605957
1771038055980243000,6.733242919921875,-10.829324722290039,11.493513107299805,-1.1573058366775513
1771038055999209200,6.752209228515625,-10.398051261901855,12.509696960449219,-0.28469592332839966
1771038056018175500,6.771175537109375,-17.482667922973633,14.786903381347656,-0.12650716304779053
1771038056037141800,6.790141845703125,-12.098282814025879,14.976938247680664,1.0021345615386963
1771038056056108300,6.8091083984375,-3.45188045501709,14.53846549987793,1.897337555885315
1771038056075074600,6.828074462890625,-1.9978777170181274,14.893898010253906,2.1753227710723877
1771038056094040800,6.847040771484375,14.883155822753906,9.845295906066895,8.445512771606445
1771038056113007000,6.866007080078125,28.61652183532715,-0.5512380599975586,8.101926803588867
1771038056131973400,6.884973388671875,3.17673659324646,3.609053611755371,4.788214206695557
1771038056150940000,6.90393994140625,-6.004218101501465,10.583312034606934,1.4659250974655151
1771038056169906200,6.92290625,-22.533138275146484,8.841635704040527,11.815910339355469
1771038056188872400,6.94187255859375,-37.53262710571289,1.686964511871338,12.52260684967041
1771038056207838700,6.960838623046875,-25.76177978515625,-3.4220094680786133,14.12896728515625
1771038056226805000,6.979804931640625,-12.013338088989258,-10.024169921875,12.362020492553711
1771038056245771500,6.998771484375,-8.353277206420898,-21.058521270751953,10.897433280944824
1771038056264737800,7.01773779296875,-14.48021411895752,-35.15875244140625,11.058853149414062
1771038056283704000,7.0367041015625,-18.699167251586914,-42.48799133300781,4.4391913414001465
1771038056302670300,7.05567041015625,3.8971681594848633,-48.07373809814453,-2.888991355895996
1771038056321636600,7.07463671875,67.19026184082031,-19.733196258544922,-15.395614624023438
1771038056340603100,7.09360302734375,10.185840606689453,-6.398406982421875,-7.439968109130859
1771038056359569400,7.1125693359375,3.131963014602661,0.3538970947265625,-5.750267028808594
1771038056378535700,7.13153564453125,5.300288200378418,5.61043643951416,-4.70615291595459
1771038056397502000,7.150501953125,17.624786376953125,11.546285629272461,-5.063630104064941
1771038056416468200,7.16946826171875,14.90579605102539,11.951658248901367,-5.722743988037109
1771038056435434800,7.188434814453125,4.214140892028809,11.162515640258789,-4.258675575256348
1771038056454401000,7.207401123046875,1.2056725025177002,11.315086364746094,-3.2503581047058105
1771038056473367300,7.2263671875,-1.2985994815826416,11.076665878295898,-2.4997634887695312
1771038056492333800,7.245333740234375,-1.0707433223724365,10.829322814941406,-2.4542417526245117
1771038056511299800,7.2642998046875,0.7976619005203247,10.216464042663574,-2.155545711517334
1771038056530266400,7.283266357421875,-2.6203954219818115,8.052906036376953,-2.5489721298217773
1771038056549232600,7.302232666015625,-4.849031448364258,6.37053108215332,-2.6389570236206055
1771038056568199000,7.321198974609375,-3.4910807609558105,-4.424564361572266,-2.3540751934051514
1771038056587165200,7.340165283203125,17.785524368286133,-42.6776008605957,3.092444896697998
1771038056606131500,7.35913134765625,0.3074772357940674,-74.7320785522461,9.307512283325195
1771038056625098000,7.378097900390625,-5.2398271560668945,-34.13428497314453,7.6138596534729
1771038056653547300,7.40654736328125,-12.284866333007812,0.9421243667602539,-0.11391979455947876
1771038056672513800,7.425513671875,-10.116117477416992,6.73388671875,-2.095348358154297
1771038056691480000,7.44447998046875,-12.324028015136719,10.135599136352539,-2.194347620010376
1771038056710446300,7.4634462890625,-11.300968170166016,12.166308403015137,-3.3702383041381836
1771038056729412600,7.48241259765625,-12.278772354125977,13.294801712036133,-3.4532079696655273
1771038056748379100,7.501379150390625,-17.97140121459961,15.306282997131348,-3.129373073577881
1771038056767345400,7.520345458984375,-15.135601043701172,15.55239486694336,-0.5372350215911865
1771038056786311700,7.539311767578125,-4.082627296447754,15.77100944519043,1.3241782188415527
1771038056805278000,7.55827783203125,-0.8146731853485107,16.64089584350586,1.5371066331863403
1771038056824244200,7.577244140625,31.131420135498047,10.377537727355957,8.862980842590332
1771038056843210800,7.596210693359375,29.02924156188965,0.7840261459350586,7.140547752380371
1771038056862177000,7.615177001953125,0.7877178192138672,3.8577442169189453,3.0626449584960938
1771038056881143300,7.634143310546875,-9.307354927062988,9.860349655151367,0.09609967470169067
1771038056900109600,7.653109619140625,-24.7021484375,8.269145965576172,11.405313491821289
1771038056919075800,7.672075927734375,-34.94773864746094,2.0584330558776855,12.209649085998535
1771038056938042400,7.69104248046875,-19.817626953125,-0.8723573684692383,13.960013389587402
1771038056957008600,7.710008544921875,-9.625635147094727,-5.82459831237793,12.311656951904297
1771038056975975000,7.728974853515625,-5.3747053146362305,-17.048866271972656,11.571455955505371
1771038056994941200,7.747941162109375,-8.920866966247559,-32.564979553222656,16.601608276367188
1771038057013907500,7.766907470703125,-17.635299682617188,-45.429969787597656,12.712442398071289
1771038057032874000,7.7858740234375,10.614896774291992,-52.16797637939453,1.2956006526947021
1771038057051840300,7.80484033203125,58.631649017333984,-20.034812927246094,-12.199158668518066
1771038057070806500,7.823806640625,12.409743309020996,-7.530207633972168,-4.666677474975586
1771038057089772800,7.842772705078125,8.343741416931152,0.35926055908203125,-2.7818779945373535
1771038057108739000,7.861739013671875,11.190200805664062,4.834012031555176,-2.211036205291748
1771038057127705600,7.88070556640625,16.764307022094727,9.81823444366455,-2.78189754486084
1771038057146671900,7.899671875,17.36544418334961,11.030376434326172,-4.663318634033203
1771038057165638100,7.91863818359375,7.7584991455078125,10.981791496276855,-4.000401973724365
1771038057184604400,7.9376044921875,0.3452167510986328,10.268439292907715,-1.8688254356384277
1771038057203570700,7.95657080078125,-0.7276495695114136,10.528864860534668,-0.11620450019836426
1771038057222537200,7.975537109375,0.9848540425300598,11.355596542358398,1.4574204683303833
1771038057241503500,7.99450341796875,0.302254855632782,10.318663597106934,0.7210763692855835
1771038057260469800,8.0134697265625,-2.260863780975342,7.945158958435059,-1.0870054960250854
1771038057279436000,8.03243603515625,-4.619596481323242,5.319872856140137,-0.6539344787597656
1771038057298402300,8.05140234375,-14.437735557556152,-7.577248573303223,2.8909757137298584
1771038057317368800,8.070368896484375,35.98247528076172,-68.19258117675781,5.662820816040039
1771038057336335000,8.089335205078125,-6.029211044311523,-72.0772705078125,1.049318552017212
1771038057355301400,8.10830126953125,-12.845569610595703,-22.69198226928711,-3.7917683124542236
1771038057374267600,8.127267578125,-16.73716926574707,-1.6013717651367188,-0.673185408115387
1771038057393234000,8.14623388671875,-13.0179443359375,7.1421051025390625,-2.7608156204223633
1771038057412200400,8.165200439453125,-13.294143676757812,11.069740295410156,-3.6128439903259277
1771038057431166700,8.184166748046875,-11.143453598022461,13.22818374633789,-2.3087527751922607
1771038057450133000,8.203133056640626,-11.816976547241211,14.194892883300781,-2.2550015449523926
1771038057469099300,8.222099365234374,-13.761575698852539,15.206235885620117,-2.2776713371276855
1771038057488065500,8.2410654296875,-17.203372955322266,18.235509872436523,-0.58730548620224
1771038057507032000,8.260031982421875,-5.785065650939941,17.947843551635742,0.8413009643554688
1771038057525998300,8.278998291015625,-1.9665415287017822,16.992752075195312,1.0865156650543213
1771038057544964600,8.297964599609376,7.485529899597168,11.923755645751953,4.9843668937683105
1771038057563931000,8.316930908203124,36.98273849487305,-1.5686836242675781,9.457480430603027
1771038057582897200,8.335897216796875,6.157243728637695,0.37263011932373047,4.070589065551758
1771038057601863700,8.35486376953125,-3.983926296234131,7.259821891784668,1.1480926275253296
1771038057620830000,8.373829833984376,-13.202497482299805,8.727150917053223,6.226315498352051
1771038057639796200,8.392796142578124,-34.44462203979492,2.1290717124938965,11.930327415466309
1771038057658762500,8.411762451171874,-31.882856369018555,-2.3627099990844727,12.14441204071045
1771038057677728800,8.430728759765625,-15.269342422485352,-5.419960975646973,11.340866088867188
1771038057696695300,8.4496953125,-8.005517959594727,-12.495450973510742,9.0552978515625
1771038057715661600,8.46866162109375,-9.26030445098877,-26.984149932861328,12.30288314819336
1771038057734627800,8.4876279296875,-17.91864585876465,-42.8424186706543,9.507018089294434
1771038057753594000,8.506593994140625,-44.73248291015625,-38.596656799316406,1.186617374420166
1771038057772560400,8.525560302734375,119.04586791992188,-35.41559982299805,-19.398500442504883
1771038057791527000,8.54452685546875,31.486724853515625,-12.209081649780273,-10.417585372924805
1771038057810493200,8.5634931640625,7.606616020202637,-2.057790756225586,-6.513505935668945
1771038057829459500,8.58245947265625,9.927770614624023,2.9106945991516113,-4.803280830383301
1771038057848425700,8.60142578125,16.027328491210938,8.725137710571289,-3.8220858573913574
1771038057867392000,8.62039208984375,17.010250091552734,11.285894393920898,-5.181318283081055
1771038057886358300,8.639358154296875,3.4962711334228516,10.711553573608398,-4.1707305908203125
1771038057905324500,8.658324462890626,-1.9717388153076172,10.784429550170898,-3.9892027378082275
1771038057924291000,8.677291015625,1.383577585220337,11.08942699432373,-1.947822093963623
1771038057943257300,8.69625732421875,3.697661876678467,11.455451011657715,-1.266481876373291
1771038057962223600,8.7152236328125,-1.1308507919311523,9.38382339477539,-1.991297721862793
1771038057981190000,8.73418994140625,-4.479735851287842,7.184968948364258,-2.604246139526367
1771038058000156200,8.75315625,-6.090414524078369,5.2514448165893555,-1.997701644897461
1771038058019122700,8.772122802734375,23.034011840820312,-19.871551513671875,-4.617385387420654
1771038058038089000,8.7910888671875,1.0576519966125488,-65.02033996582031,3.4389989376068115
1771038058057055200,8.81005517578125,-1.4301236867904663,-66.08174896240234,2.6781864166259766
1771038058076021500,8.829021484375,-11.252384185791016,-17.736604690551758,4.006187915802002
1771038058094987800,8.84798779296875,-14.745874404907227,-0.7650136947631836,0.9816430807113647
1771038058113954000,8.8669541015625,-11.633809089660645,5.7067389488220215,-1.8072383403778076
1771038058132920300,8.88592041015625,-13.062417030334473,9.577360153198242,-1.1416847705841064
1771038058151886800,8.904886962890625,-12.690354347229004,11.639430046081543,-1.2783279418945312
1771038058170853000,8.92385302734375,-13.286287307739258,12.648107528686523,-2.60713529586792
1771038058189819400,8.9428193359375,-22.562135696411133,14.796409606933594,-4.981637954711914
1771038058208785700,8.96178564453125,-19.12110137939453,17.6776180267334,-1.9160752296447754
1771038058227752000,8.980751953125,-6.709238529205322,20.167015075683594,2.3822543621063232
1771038058246718500,8.999718505859375,0.909233570098877,18.996932983398438,3.620950698852539
1771038058265684700,9.018684814453126,17.184406280517578,11.890995025634766,10.928240776062012
1771038058284651000,9.037651123046874,33.427330017089844,-3.8201045989990234,10.570417404174805
1771038058303617300,9.0566171875,3.7618765830993652,1.5112175941467285,4.791676044464111
1771038058322583600,9.07558349609375,-9.268842697143555,9.08432388305664,2.562574863433838
1771038058341549800,9.0945498046875,-24.681655883789062,5.0046491622924805,9.71357536315918
1771038058360516000,9.11351611328125,-38.46949768066406,-2.3267812728881836,13.43212604522705
1771038058379482600,9.132482666015624,-23.48861312866211,-4.589332580566406,14.215059280395508
1771038058398449000,9.151448974609375,-10.841541290283203,-8.864640235900879,12.295085906982422
1771038058417415200,9.170415283203125,-6.262334823608398,-16.82784652709961,11.643521308898926
1771038058436381400,9.18938134765625,-7.587266445159912,-30.351104736328125,16.34408187866211
1771038058455347700,9.20834765625,-21.47762680053711,-43.29358673095703,13.836583137512207
1771038058474314000,9.22731396484375,54.82920455932617,-49.89167022705078,-7.370668888092041
1771038058493280300,9.2462802734375,35.5730094909668,-23.340713500976562,-17.244041442871094
1771038058512246500,9.26524658203125,6.14577054977417,-7.83680534362793,-8.211860656738281
1771038058531213000,9.284213134765626,11.0013427734375,1.0002474784851074,-5.053495407104492
1771038058550179300,9.303179443359374,17.163402557373047,6.903482437133789,-4.514031410217285
1771038058569145600,9.3221455078125,17.79242706298828,10.69877815246582,-5.323788642883301
1771038058588112000,9.34111181640625,13.311559677124023,10.924478530883789,-6.224996089935303
1771038058607078100,9.360078125,7.886957168579102,10.420772552490234,-5.368670463562012
1771038058626044400,9.37904443359375,0.29906725883483887,10.105560302734375,-2.960552215576172
1771038058645010700,9.3980107421875,0.44551312923431396,10.368745803833008,-1.626054286956787
1771038058663977000,9.41697705078125,3.3156487941741943,10.918007850646973,-0.2956503629684448
1771038058682943500,9.435943603515625,2.055288791656494,9.109195709228516,-0.7265528440475464
1771038058701909800,9.45490966796875,-2.780057668685913,7.5204572677612305,-1.7366480827331543
1771038058720876000,9.4738759765625,-3.868412733078003,6.321327209472656,-1.578279972076416
1771038058739842300,9.49284228515625,-4.451886177062988,-6.350188255310059,-1.2878572940826416
1771038058758808600,9.51180859375,15.971696853637695,-62.632484436035156,7.92863655090332
1771038058777774800,9.53077490234375,-1.7264525890350342,-77.23678588867188,4.83890962600708
1771038058796741000,9.5497412109375,-10.384215354919434,-24.341297149658203,6.282534122467041
1771038058815707400,9.568707275390626,-16.77138900756836,-3.193666458129883,2.486208915710449
1771038058834673700,9.587673583984374,-13.62032699584961,5.594747543334961,-1.5591847896575928
1771038058853640200,9.60664013671875,-12.069662094116211,9.109728813171387,-4.561663627624512
1771038058872606500,9.6256064453125,-12.812908172607422,12.065536499023438,-4.21490478515625
1771038058891572700,9.64457275390625,-15.973363876342773,13.83423900604248,-5.008709907531738
1771038058910539000,9.6635390625,-16.814558029174805,14.894370079040527,-5.545532703399658
1771038058929505300,9.68250537109375,-19.10396957397461,17.668703079223633,-3.4466757774353027
1771038058948471600,9.701471435546875,-8.087305068969727,19.752634048461914,1.1590813398361206
1771038058967437800,9.720437744140625,-4.11888313293457,18.673603057861328,2.7767746448516846
1771038058986404000,9.739404052734375,3.8397130966186523,13.296178817749023,7.108664512634277
1771038059005370400,9.758370361328126,44.34545135498047,-2.087465286254883,15.156827926635742
1771038059024336600,9.777336669921874,13.044305801391602,-0.5984392166137695,5.853074550628662
1771038059043303200,9.79630322265625,-2.9126875400543213,5.747442722320557,2.4183411598205566
1771038059062269400,9.81526953125,-13.00932788848877,10.399269104003906,7.305807590484619
1771038059081235700,9.834235595703126,-35.84989547729492,2.230433464050293,11.233302116394043
1771038059100202000,9.853201904296874,-31.381267547607422,-2.224414825439453,12.407318115234375
1771038059119168300,9.872168212890625,-17.648714065551758,-5.982054710388184,10.434699058532715
1771038059138134500,9.891134521484375,-8.032394409179688,-12.352154731750488,8.998807907104492
1771038059157100800,9.910100830078125,-5.816083908081055,-23.32364845275879,12.968535423278809
1771038059176067000,9.929067138671876,-13.575169563293457,-41.94593811035156,13.805386543273926
1771038059195033300,9.948033447265624,-44.173622131347656,-42.192115783691406,4.945343017578125
1771038059213999600,9.96699951171875,99.01705932617188,-35.01268005371094,-18.725643157958984
1771038059232966000,9.9859658203125,21.830289840698242,-13.105321884155273,-9.361693382263184
1771038059251932200,10.00493212890625,3.5712406635284424,-1.5547475814819336,-5.525115489959717
1771038059270898400,10.0238984375,8.859816551208496,3.7372078895568848,-3.773179292678833
1771038059289864700,10.04286474609375,20.719074249267578,9.770642280578613,-3.642091751098633
1771038059308831000,10.0618310546875,22.54070472717285,11.696836471557617,-5.477452278137207
1771038059327797200,10.08079736328125,8.764717102050781,10.670101165771484,-5.717254638671875
1771038059346763800,10.099763671875,1.338661551475525,9.984265327453613,-4.536276817321777
1771038059365729800,10.118729736328126,1.2060409784317017,10.096748352050781,-2.6451008319854736
1771038059384696300,10.1376962890625,3.295879364013672,10.66470718383789,-1.3119099140167236
1771038059403662600,10.15666259765625,1.934664011001587,10.198415756225586,-1.1529260873794556
1771038059422628900,10.17562890625,-1.984039545059204,7.485258102416992,-2.682713747024536
1771038059441595100,10.19459521484375,-3.687310218811035,5.431358337402344,-2.934873580932617
1771038059460561400,10.2135615234375,-10.057039260864258,-5.725043296813965,-1.6662263870239258
1771038059479527700,10.232527587890624,38.77460861206055,-58.793365478515625,9.002362251281738
1771038059498494000,10.251493896484375,1.7251262664794922,-79.39488983154297,1.281925082206726
1771038059517460200,10.270460205078125,-10.36446475982666,-25.371511459350586,0.6778919696807861
1771038059536426500,10.289426513671875,-15.239317893981934,-3.02211856842041,1.8738901615142822
1771038059555392800,10.308392822265626,-13.544544219970703,4.416973114013672,-0.032572150230407715
1771038059574359000,10.327359130859374,-12.620418548583984,7.827905178070068,-1.8142510652542114
1771038059593325300,10.3463251953125,-12.77846908569336,11.755483627319336,-2.1414875984191895
1771038059612291600,10.36529150390625,-13.005453109741211,13.45389175415039,-3.636814594268799
1771038059631257900,10.3842578125,-21.034130096435547,14.75164794921875,-6.117902755737305
1771038059650224000,10.40322412109375,-23.430448532104492,16.747188568115234,-3.325873374938965
1771038059669190400,10.4221904296875,-8.71210765838623,20.331050872802734,2.0884108543395996
1771038059688156700,10.44115673828125,-2.778676748275757,22.678421020507812,3.971808910369873
1771038059707123000,10.460123046875,12.030062675476074,15.542169570922852,10.448177337646484
1771038059726089200,10.479089111328125,40.457332611083984,-0.21301746368408203,17.144634246826172
1771038059745055500,10.498055419921876,14.280521392822266,-1.020284652709961,7.257160186767578
1771038059764021800,10.517021728515624,-1.1996817588806152,5.095385551452637,2.548429489135742
1771038059782988000,10.535988037109375,-10.408171653747559,8.522188186645508,5.824306011199951
1771038059801954300,10.554954345703125,-43.57514190673828,0.9327101707458496,9.161922454833984
1771038059820920600,10.573920654296876,-35.23807144165039,-4.766728401184082,12.688420295715332
1771038059839886800,10.592886962890624,-15.603415489196777,-7.937664031982422,11.139703750610352
1771038059858853000,10.61185302734375,-8.965639114379883,-16.516494750976562,9.448723793029785
1771038059877819400,10.6308193359375,-6.934743881225586,-26.931156158447266,13.978129386901855
1771038059896785700,10.64978564453125,-16.068801879882812,-40.895408630371094,12.656848907470703
1771038059915752000,10.668751953125,-20.94721794128418,-45.42641830444336,4.100289344787598
1771038059934718200,10.68771826171875,88.26266479492188,-28.48253631591797,-18.991703033447266
1771038059953684500,10.7066845703125,16.740196228027344,-11.088339805603027,-8.448453903198242
1771038059972650800,10.725650634765625,4.219151496887207,-1.5128555297851562,-4.985633850097656
1771038059991617000,10.744616943359375,8.54279899597168,4.406718730926514,-4.6064839363098145
1771038060010583300,10.763583251953126,18.41282081604004,10.872392654418945,-4.911199569702148
1771038060029549600,10.782549560546874,16.44822120666504,11.902017593383789,-5.145229339599609
1771038060048515800,10.801515869140625,6.900875091552734,10.937088966369629,-4.863194465637207
1771038060067482000,10.820482177734375,1.2437360286712646,10.241888999938965,-3.6650123596191406
1771038060086448400,10.839448486328125,1.0683852434158325,10.156386375427246,-2.1421141624450684
1771038060105414700,10.85841455078125,2.0128819942474365,10.46847152709961,-1.2029109001159668
1771038060124381000,10.877380859375,3.3549211025238037,10.702035903930664,-0.8133689165115356
1771038060143347200,10.89634716796875,-2.28436279296875,7.749159812927246,-2.7492003440856934
1771038060162313500,10.9153134765625,-3.888887882232666,5.9549336433410645,-3.260200023651123
1771038060181279700,10.93427978515625,-7.604719161987305,0.25873374938964844,-2.1083037853240967
1771038060200246000,10.95324609375,41.59230422973633,-47.9853515625,3.0970168113708496
1771038060219212000,10.9722119140625,-1.8913146257400513,-86.82315826416016,2.8379933834075928
1771038060238178300,10.99117822265625,-8.515029907226562,-36.33454132080078,1.470511555671692
1771038060257144600,11.01014453125,-15.023813247680664,-5.09868049621582,3.056896686553955
1771038060276110800,11.02911083984375,-13.587651252746582,4.441145896911621,1.7590433359146118
1771038060295077000,11.0480771484375,-12.323022842407227,8.821935653686523,-1.1892261505126953
1771038060314043400,11.06704345703125,-12.287799835205078,11.527607917785645,-4.080254554748535
1771038060333009700,11.086009765625,-12.785820007324219,12.944522857666016,-5.648379325866699
1771038060351976000,11.104975830078125,-25.33860206604004,14.701988220214844,-7.264981269836426
1771038060370942200,11.123942138671875,-20.054786682128906,17.574199676513672,-2.7567763328552246
1771038060389908500,11.142908447265626,-7.518858909606934,20.851398468017578,2.3330907821655273
1771038060408874800,11.161874755859374,-2.8902292251586914,25.118837356567383,6.481137752532959
1771038060427841000,11.180841064453125,4.0812907218933105,14.842090606689453,11.229917526245117
1771038060446807300,11.199807373046875,27.295717239379883,2.604778289794922,11.733814239501953
1771038060465773600,11.218773681640625,15.498592376708984,0.07213497161865234,5.828479766845703
1771038060484739600,11.237739501953126,2.751094102859497,3.72697114944458,3.4350228309631348
1771038060503705900,11.256705810546874,-4.6751508712768555,8.309638977050781,4.005913734436035
1771038060522672000,11.275672119140625,-21.761241912841797,2.885791301727295,10.941890716552734
1771038060541638400,11.294638427734375,-44.79471969604492,-2.4125471115112305,11.88987922668457
1771038060560604700,11.313604736328125,-21.882314682006836,-7.167862892150879,12.535850524902344
1771038060579571000,11.332571044921876,-11.516444206237793,-13.679804801940918,8.64638900756836
1771038060598537200,11.351537109375,-8.850485801696777,-21.53182029724121,11.249061584472656
1771038060617503500,11.37050341796875,-20.493467330932617,-37.083282470703125,8.51524543762207
1771038060636469800,11.3894697265625,-46.77033615112305,-41.299583435058594,1.645868182182312
1771038060655436000,11.40843603515625,112.03704833984375,-46.464027404785156,-18.015371322631836
1771038060674402300,11.42740234375,39.48797607421875,-16.393310546875,-11.079668045043945
1771038060693368300,11.446368408203124,2.88169002532959,-4.485467910766602,-6.4896955490112305
1771038060712334600,11.46533447265625,5.302656650543213,1.7522921562194824,-4.556602478027344
1771038060731300900,11.48430078125,10.937382698059082,8.822178840637207,-3.4588208198547363
1771038060750267100,11.50326708984375,25.893882751464844,12.92584228515625,-4.045464515686035
1771038060769233400,11.5222333984375,7.400757312774658,11.050246238708496,-3.1181206703186035
1771038060788199700,11.54119970703125,1.1063644886016846,10.177684783935547,-1.9028760194778442
1771038060807166000,11.560166015625,0.8420369625091553,10.0835542678833,-0.2932583689689636
1771038060826132200,11.57913232421875,0.6067056655883789,10.431246757507324,0.16864138841629028
1771038060845098200,11.59809814453125,2.662564277648926,10.61020278930664,1.517751693725586
1771038060864064500,11.617064453125,-1.7190814018249512,8.081117630004883,-0.7151371836662292
1771038060883030800,11.63603076171875,-3.0988214015960693,6.349501609802246,-1.1155678033828735
1771038060901997000,11.6549970703125,-14.190180778503418,-3.9790143966674805,-0.19985558092594147
1771038060920963300,11.67396337890625,34.99198913574219,-61.1950569152832,-1.950843334197998
1771038060939929600,11.6929296875,-6.018060684204102,-76.38545989990234,-4.903257846832275
1771038060958895900,11.711895751953126,-13.984665870666504,-24.152339935302734,-2.047313690185547
1771038060977862000,11.73086181640625,-16.876983642578125,-3.0426712036132812,0.2086239457130432
1771038060996828200,11.749828125,-13.086685180664062,6.138561248779297,-1.098464846611023
1771038061015794400,11.76879443359375,-13.341548919677734,10.425299644470215,-0.9416972994804382
1771038061034760700,11.7877607421875,-12.190919876098633,12.340948104858398,-1.8055365085601807
1771038061053727000,11.80672705078125,-15.525503158569336,13.555434226989746,-2.8117003440856934
1771038061072693200,11.825693359375,-23.12241554260254,16.56235122680664,-2.8182759284973145
1771038061091659500,11.844659423828125,-15.093191146850586,18.71910858154297,0.5405132174491882
1771038061110625500,11.86362548828125,-5.212458610534668,19.434444427490234,3.1804401874542236
1771038061129591800,11.882591796875,-0.7990555763244629,20.080081939697266,5.550819396972656
1771038061148558000,11.90155810546875,16.263042449951172,9.23425006866455,10.716490745544434
1771038061167524400,11.9205244140625,27.680402755737305,-1.996591567993164,9.57292366027832
1771038061186490600,11.93949072265625,10.223087310791016,-1.1837921142578125,4.601744651794434
1771038061205456600,11.95845654296875,-5.144101142883301,5.9932355880737305,1.8914210796356201
1771038061224423000,11.9774228515625,-31.383060455322266,5.509709358215332,11.751120567321777
1771038061243389200,11.99638916015625,-44.48149108886719,0.41552162170410156,8.183456420898438
1771038061262355500,12.01535546875,-19.121854782104492,-1.556319236755371,8.464612007141113
1771038061281321700,12.03432177734375,-9.625602722167969,-5.361669540405273,6.579108238220215
1771038061300288000,12.0532880859375,-6.376314163208008,-15.828968048095703,6.320987224578857
1771038061319254000,12.07225390625,-20.83513069152832,-36.540889739990234,7.030200004577637
1771038061338220300,12.09122021484375,-18.23293685913086,-47.3921012878418,2.254271984100342
1771038061357186600,12.1101865234375,1.376418113708496,-50.66075134277344,-2.023926019668579
1771038061376152800,12.12915283203125,73.4120101928711,-15.286725997924805,-7.753413200378418
1771038061395119000,12.148119140625,19.5700740814209,-7.624087333679199,-6.154108047485352
1771038061414085000,12.167085205078125,6.434453964233398,-0.6473474502563477,-5.272514820098877
1771038061433051400,12.186051513671876,3.3615074157714844,3.9544677734375,-3.6807422637939453
1771038061452017700,12.205017578125,14.654346466064453,11.485069274902344,-3.8434677124023438
1771038061470984000,12.22398388671875,15.711183547973633,12.032695770263672,-3.1303086280822754
1771038061489950000,12.242949951171875,1.6849299669265747,10.707573890686035,-1.5337255001068115
1771038061508916200,12.261916259765625,-0.4314899444580078,10.144583702087402,0.00229853019118309
1771038061527882500,12.280882568359376,-1.109576940536499,10.583782196044922,1.068329930305481
1771038061546848800,12.299848876953124,-0.5737504959106445,10.774438858032227,1.4506654739379883
1771038061565815000,12.31881494140625,0.25816476345062256,8.887554168701172,0.8382911682128906
1771038061584781000,12.337781005859375,-1.4216495752334595,7.433289527893066,0.22693276405334473
1771038061603747300,12.356747314453125,-7.4842023849487305,0.13594532012939453,0.2817142605781555
1771038061622713600,12.375713623046876,46.59682083129883,-51.02342224121094,-9.26163101196289
1771038061641680000,12.394679931640624,-0.23216986656188965,-76.17286682128906,-0.638115406036377
1771038061660646000,12.41364599609375,-15.84472370147705,-39.6454963684082,-7.786966323852539
1771038061679612200,12.432612060546875,-18.022396087646484,-6.72315788269043,-0.7893915176391602
1771038061698578400,12.451578369140625,-15.158205032348633,5.497808456420898,-0.49857592582702637
1771038061717544400,12.47054443359375,-13.548286437988281,9.21054458618164,0.15716567635536194
1771038061736510700,12.4895107421875,-11.084817886352539,11.92322063446045,0.5487989783287048
1771038061755477000,12.50847705078125,-12.394783973693848,13.202230453491211,-1.0162734985351562
1771038061774443300,12.527443359375,-18.21902847290039,15.368818283081055,-1.465378999710083
1771038061793409300,12.5464091796875,-19.59423828125,19.030460357666016,0.9973994493484497
1771038061812375600,12.56537548828125,-8.634864807128906,19.645532608032227,3.05488657951355
1771038061831341800,12.584341796875,-1.693671464920044,20.182537078857422,4.839249134063721
1771038061850308000,12.60330810546875,0.8180320262908936,12.328723907470703,7.8800740242004395
1771038061869274000,12.622274169921875,32.06101989746094,-0.07565116882324219,9.439248085021973
1771038061888240400,12.641240478515625,14.822854995727539,-2.206216812133789,5.999372482299805
1771038061907206700,12.66020654296875,4.765392780303955,3.3921546936035156,2.7370829582214355
1771038061926173000,12.6791728515625,-6.525983810424805,9.372092247009277,1.671916127204895
1771038061945139000,12.698138916015624,-24.2355899810791,6.172112464904785,12.311208724975586
1771038061964105200,12.717105224609375,-43.26740264892578,1.0397214889526367,9.696831703186035
1771038061983071500,12.736071533203125,-20.94734001159668,-4.404108047485352,9.180198669433594
1771038062002037500,12.75503759765625,-9.384157180786133,-12.19252872467041,6.661753177642822
1771038062021003800,12.774003662109376,-9.637945175170898,-20.930728912353516,8.007933616638184
1771038062039970000,12.792969970703124,-25.778444290161133,-40.48699951171875,3.34795880317688
1771038062058936300,12.811936279296875,-18.42120361328125,-45.06724548339844,-5.0666184425354
1771038062077902300,12.83090234375,21.712663650512695,-48.06568908691406,-11.97159481048584
1771038062096868600,12.84986865234375,56.57119369506836,-13.402433395385742,-11.684571266174316
1771038062115835000,12.8688349609375,14.588005065917969,-4.7586259841918945,-7.846205234527588
1771038062134801000,12.88780078125,5.423717498779297,1.0624933242797852,-5.509090900421143
1771038062153767200,12.90676708984375,3.592987298965454,6.090738296508789,-3.7814183235168457
1771038062172733400,12.9257333984375,21.908411026000977,12.444608688354492,-3.609471559524536
1771038062191699500,12.944699462890625,9.897655487060547,12.074402809143066,-3.1688270568847656
1771038062210665700,12.963665771484376,-1.433194637298584,11.161072731018066,-1.650144338607788
1771038062229632000,12.982632080078124,-2.7224583625793457,11.530925750732422,-0.5025835037231445
1771038062248598300,13.001598388671875,0.17583978176116943,11.64542007446289,0.11500391364097595
1771038062267564300,13.020564208984375,2.105268716812134,9.894293785095215,-0.5693273544311523
1771038062286530600,13.039530517578125,-4.30360746383667,7.785482883453369,-1.4840065240859985
1771038062305496600,13.05849658203125,-5.05433988571167,5.635532379150391,-2.136089324951172
1771038062324462800,13.077462890625,32.28827667236328,-25.042695999145508,-10.412309646606445
1771038062343429000,13.09642919921875,-1.7978641986846924,-64.32442474365234,-3.2945685386657715
1771038062362395100,13.11539501953125,-5.971363067626953,-65.13058471679688,-4.272153377532959
1771038062381361400,13.134361328125,-16.372018814086914,-18.296049118041992,0.23920106887817383
1771038062400327700,13.15332763671875,-16.606201171875,-0.8931980133056641,-1.240903377532959
1771038062419293700,13.172293701171874,-13.617168426513672,6.267416477203369,-2.09871244430542
1771038062438260000,13.191260009765625,-12.02090835571289,10.116191864013672,-1.825120449066162
1771038062457226200,13.210226318359375,-10.680460929870605,10.673337936401367,-2.5639030933380127
1771038062476192300,13.229192138671875,-18.308679580688477,13.07473373413086,-3.287959575653076
1771038062495158500,13.248158447265626,-32.016780853271484,17.25606918334961,-1.1817708015441895
1771038062514124800,13.267124755859374,-14.332029342651367,20.500621795654297,2.9403231143951416
1771038062533090800,13.2860908203125,-3.6505465507507324,22.55596923828125,5.123324871063232
1771038062552057000,13.30505712890625,4.097825050354004,16.837162017822266,8.233742713928223
1771038062571023400,13.3240234375,29.803730010986328,5.326204776763916,13.17100715637207
1771038062589989400,13.3429892578125,17.94342613220215,-2.7303504943847656,9.122932434082031
1771038062608955600,13.36195556640625,9.070433616638184,-0.47638988494873047,5.663197040557861
1771038062627921700,13.380921630859374,1.2079150676727295,6.429536819458008,4.255674362182617
1771038062646888000,13.399887939453125,-15.917510032653809,3.8801984786987305,13.970698356628418
1771038062665854200,13.418854248046875,-47.561500549316406,-0.3409767150878906,13.907275199890137
1771038062684820200,13.4378203125,-26.85848045349121,-4.655391693115234,11.808088302612305
1771038062703786500,13.456786376953126,-13.753291130065918,-10.856032371520996,7.692651271820068
1771038062722752800,13.475752685546874,-11.034045219421387,-18.111175537109375,6.740241050720215
1771038062741718800,13.49471875,-18.4370059967041,-33.648712158203125,4.509209156036377
1771038062760685000,13.51368505859375,-22.301843643188477,-43.352088928222656,-2.8210647106170654
1771038062779651000,13.532651123046875,31.503021240234375,-50.40380859375,-11.816259384155273
1771038062798617300,13.551617431640626,53.80867385864258,-16.27886199951172,-13.677395820617676
1771038062817583600,13.57058349609375,10.475123405456543,-5.963629722595215,-8.63758659362793
1771038062836549600,13.589549560546875,6.129184722900391,1.6706933975219727,-6.511906623840332
1771038062855516000,13.608515869140625,10.118697166442871,7.033413410186768,-5.202335834503174
1771038062874482200,13.627482177734375,20.32150650024414,11.68664264678955,-5.392471790313721
1771038062893448200,13.6464482421875,4.908107757568359,11.335128784179688,-4.555629730224609
1771038062912414500,13.66541455078125,1.0025196075439453,10.935873031616211,-3.381481409072876
1771038062931380500,13.68438037109375,-1.5962828397750854,10.857792854309082,-2.0972023010253906
1771038062950346800,13.7033466796875,1.6433120965957642,11.051066398620605,-1.5404281616210938
1771038062969312800,13.722312744140625,1.3419288396835327,9.21568489074707,-3.0800375938415527
1771038062988279000,13.741279052734376,-4.86964750289917,7.231569766998291,-2.3647894859313965
1771038063007245300,13.760245361328124,-7.538424968719482,4.262476444244385,-3.936798572540283
1771038063026211300,13.77921142578125,15.679347038269043,-22.9023494720459,-9.26559829711914
1771038063045177600,13.798177490234375,15.906549453735352,-61.53476333618164,-1.7026164531707764
1771038063064143600,13.8171435546875,-10.3375244140625,-66.38473510742188,-0.7590675354003906
1771038063083110000,13.83610986328125,-13.638640403747559,-17.85476303100586,3.9761300086975098
1771038063102076000,13.855075927734376,-14.469844818115234,-0.14946746826171875,2.57379150390625
1771038063121042200,13.874042236328124,-13.328105926513672,5.526596546173096,-0.17811623215675354
1771038063140008400,13.893008544921875,-12.807937622070312,9.713403701782227,-0.42231637239456177
1771038063158974500,13.911974365234375,-11.36510181427002,10.367286682128906,-2.7270851135253906
1771038063177940700,13.930940673828125,-14.831525802612305,11.89570140838623,-4.201072692871094
1771038063196906800,13.94990673828125,-26.616628646850586,14.008965492248535,-3.379871368408203
1771038063215873000,13.968873046875,-18.44286346435547,16.367168426513672,2.601820945739746
1771038063234839000,13.987839111328125,-5.330807209014893,16.015199661254883,3.4106295108795166
1771038063253805300,14.006805419921875,-1.209193229675293,17.4749698638916,5.807014465332031
1771038063272771600,14.025771484375,10.992234230041504,9.985286712646484,13.027257919311523
1771038063291737600,14.044737548828126,18.746885299682617,1.2500925064086914,11.370098114013672
1771038063310703900,14.063703857421874,10.441131591796875,-0.20490264892578125,13.035900115966797
1771038063329670000,14.082669921875,6.121919631958008,4.45862340927124,5.618380069732666
1771038063348636200,14.10163623046875,-2.0321946144104004,6.581918239593506,8.580378532409668
1771038063367602200,14.120602294921875,-20.13629722595215,3.0872817039489746,15.644444465637207
1771038063386568400,14.139568359375,-41.22148895263672,0.3027067184448242,12.661262512207031
1771038063405534500,14.158534423828126,-24.452383041381836,-3.3921422958374023,7.884970188140869
1771038063424500700,14.177500732421874,-15.387247085571289,-11.78348445892334,4.62471866607666
1771038063443466800,14.196466796875,-9.917627334594727,-23.742000579833984,5.313326358795166
1771038063462433000,14.21543310546875,-21.65748405456543,-40.80908203125,3.162095546722412
1771038063481399000,14.23439892578125,-9.232495307922363,-42.5380744934082,-3.5766992568969727
1771038063500365300,14.253365234375,54.39741516113281,-39.205711364746094,-13.497480392456055
1771038063519331300,14.272331298828124,51.51210403442383,-13.85482120513916,-12.439074516296387
1771038063538297600,14.291297607421875,14.330979347229004,-5.873669624328613,-7.129110336303711
1771038063557263600,14.310263671875,2.4479846954345703,1.8590097427368164,-5.21484375
1771038063576230000,14.32922998046875,15.783480644226074,9.363824844360352,-5.135073661804199
1771038063595196000,14.34819580078125,17.702903747558594,12.011846542358398,-3.8775672912597656
1771038063614162200,14.367162109375,-0.5282447338104248,10.946394920349121,-2.9180283546447754
1771038063633128200,14.386128173828125,-2.0110785961151123,10.595964431762695,-1.3057914972305298
1771038063652094500,14.405094482421875,-2.1288108825683594,10.715336799621582,-0.8060624003410339
1771038063671060500,14.424060546875,5.8839545249938965,11.228836059570312,0.37446850538253784
1771038063690026800,14.44302685546875,-0.12571847438812256,8.091773986816406,-1.291489601135254
1771038063708992800,14.46199267578125,-3.6716792583465576,7.082915306091309,-2.235443592071533
1771038063727959000,14.480958984375,-9.639151573181152,-1.5357799530029297,-4.2111711502075195
1771038063746925000,14.499925048828125,27.6862850189209,-60.56978225708008,-4.273670673370361
1771038063765891300,14.518891357421875,-1.2221134901046753,-78.88822937011719,3.317042589187622
1771038063784857300,14.537857421875,-11.624837875366211,-27.425518035888672,6.788188457489014
1771038063803823600,14.55682373046875,-17.698165893554688,-4.207440376281738,3.9505374431610107
1771038063822789600,14.57578955078125,-13.413345336914062,5.219291687011719,-0.10747051239013672
1771038063841756000,14.594755859375,-12.692800521850586,9.092268943786621,-3.146045684814453
1771038063860722000,14.613721923828125,-11.558975219726562,11.631603240966797,-3.6465656757354736
1771038063879688200,14.632688232421875,-13.717832565307617,12.481456756591797,-5.113168716430664
1771038063898654200,14.651654296875,-29.810487747192383,13.948511123657227,-7.429545879364014
1771038063917620500,14.670620361328124,-20.106006622314453,16.72417640686035,-2.1485683917999268
1771038063936586500,14.68958642578125,-5.016025066375732,15.603910446166992,1.1195389032363892
1771038063955552500,14.708552490234375,-0.5487596988677979,16.495807647705078,2.8879919052124023
1771038063974518800,14.727518798828125,14.357230186462402,11.94991397857666,7.095973014831543
1771038063993484800,14.74648486328125,20.706787109375,3.898932456970215,7.54356050491333
1771038064012451000,14.765451171875,5.431619644165039,3.054990291595459,9.70956802368164
1771038064031417000,14.7844169921875,-0.5725927352905273,5.388219833374023,5.011112213134766
1771038064050383400,14.80338330078125,-3.732964277267456,7.485383033752441,4.00811243057251
1771038064069349400,14.822349365234375,-15.559288024902344,4.347407817840576,11.997040748596191
1771038064088315600,14.841315673828126,-40.94221496582031,-2.498776435852051,10.482430458068848
1771038064107281700,14.86028173828125,-22.075103759765625,-8.425366401672363,7.798206806182861
1771038064126248000,14.879248046875,-9.400321960449219,-13.9735746383667,6.064019680023193
1771038064145214000,14.8982138671875,-9.723133087158203,-17.077613830566406,6.959475994110107
1771038064164180000,14.917179931640625,-17.84649085998535,-29.62914276123047,7.10193395614624
1771038064183146200,14.936146240234375,-16.462827682495117,-38.16548156738281,-2.058804750442505
1771038064202112300,14.9551123046875,-0.7895698547363281,-45.51609802246094,-7.759676933288574
1771038064221078500,14.97407861328125,65.84518432617188,-20.45477294921875,-21.0429744720459
1771038064240044500,14.99304443359375,13.93407917022705,-9.584455490112305,-13.032047271728516
1771038064259010800,15.0120107421875,2.8109936714172363,0.025092124938964844,-8.388647079467773
1771038064277976800,15.030976806640625,2.627263307571411,6.741053581237793,-6.280274868011475
1771038064296942800,15.04994287109375,16.282426834106445,13.000264167785645,-6.033064842224121
1771038064315909000,15.0689091796875,4.247037410736084,12.781160354614258,-4.742319107055664
1771038064334875100,15.087875244140625,-1.2200357913970947,11.662927627563477,-3.7437572479248047
1771038064353841200,15.106841064453125,-0.8233002424240112,11.904655456542969,-3.348822593688965
1771038064372807400,15.125807373046875,11.291788101196289,12.85354995727539,-2.947709798812866
1771038064391773400,15.1447734375,-6.022597312927246,10.277573585510254,-3.6428427696228027
1771038064410739700,15.16373974609375,-5.07847261428833,7.286409378051758,-2.460865020751953
1771038064429705700,15.182705810546874,-5.826433181762695,5.2510480880737305,-2.2300586700439453
1771038064448671700,15.201671630859375,11.5663423538208,-18.145816802978516,-7.701995372772217
1771038064467638000,15.220637939453125,3.571373462677002,-53.3018798828125,-7.580446720123291
1771038064486604000,15.23960400390625,-5.414695739746094,-78.41464233398438,-2.2261195182800293
1771038064505570300,15.2585703125,-9.434871673583984,-22.899240493774414,7.925594329833984
1771038064524536300,15.277536376953124,-12.023622512817383,-0.8954839706420898,2.9795916080474854
1771038064543502300,15.29650244140625,-11.29144287109375,4.969062805175781,0.2869049906730652
1771038064562468600,15.315468505859375,-11.684843063354492,8.14827823638916,-0.03659367561340332
1771038064581434600,15.3344345703125,-12.981765747070312,9.63566780090332,-1.479565143585205
1771038064600400600,15.353400634765626,-17.477581024169922,11.834772109985352,-3.7416934967041016
1771038064619367000,15.372366943359374,-29.491077423095703,14.817647933959961,-2.368767023086548
1771038064638333000,15.3913330078125,-18.972166061401367,17.702865600585938,2.466491222381592
1771038064657299200,15.41029931640625,-5.248057842254639,15.508465766906738,3.9627015590667725
1771038064676265200,15.42926513671875,-0.3652360439300537,16.65121078491211,6.36536979675293
1771038064695231200,15.448231201171875,12.624068260192871,11.23473834991455,16.026365280151367
1771038064714197500,15.467197509765626,20.260934829711914,1.4911398887634277,16.752641677856445
1771038064733163500,15.48616357421875,10.030619621276855,-0.9866304397583008,17.52363395690918
1771038064752129500,15.505129638671875,5.857667922973633,5.760341167449951,9.491597175598145
1771038064771095800,15.524095703125,-0.6863017082214355,11.316433906555176,9.008642196655273
1771038064790061800,15.543061767578125,-14.968364715576172,6.890275001525879,14.966095924377441
1771038064809028000,15.562028076171876,-34.54621124267578,3.323640823364258,13.08995246887207
1771038064827994000,15.580994140625,-32.90000915527344,-3.277867317199707,11.961441993713379
1771038064846960000,15.599960205078125,-25.468612670898438,-15.264102935791016,8.955885887145996
1771038064865926100,15.618926025390625,-18.369482040405273,-30.036476135253906,4.928300857543945
1771038064884892400,15.637892333984375,-26.22308349609375,-48.171913146972656,-6.1385498046875
1771038064903858400,15.6568583984375,-18.645524978637695,-49.486351013183594,-9.569952964782715
1771038064922824700,15.67582470703125,136.19778442382812,-35.86923599243164,-19.589141845703125
1771038064941790700,15.694790771484374,34.68143081665039,-10.906805992126465,-7.6759233474731445
1771038064960756700,15.7137568359375,9.836517333984375,-3.3437976837158203,-4.77056884765625
1771038064979723000,15.732722900390625,4.507463455200195,2.275273323059082,-3.322819709777832
1771038064998689000,15.75168896484375,19.9499454498291,11.498271942138672,-2.580075740814209
1771038065017655000,15.770655029296876,14.754344940185547,12.800455093383789,-1.6609570980072021
1771038065036621300,15.789621337890624,0.6350350379943848,11.756926536560059,-0.6837706565856934
1771038065055587300,15.80858740234375,-2.1299078464508057,10.875184059143066,-0.5363971590995789
1771038065074553300,15.82755322265625,-1.0773396492004395,10.959426879882812,-0.08197620511054993
1771038065093519600,15.84651953125,7.532379150390625,11.635293006896973,0.7957392930984497
1771038065112485600,15.865485595703126,0.7088830471038818,8.95822811126709,-0.549432635307312
1771038065131451600,15.88445166015625,-2.175503730773926,7.667046070098877,-0.6352765560150146
1771038065150417700,15.903417724609374,4.263037204742432,0.8051109313964844,-3.0084261894226074
1771038065169384000,15.922384033203125,19.904125213623047,-51.62663269042969,-3.039905071258545
1771038065188350000,15.941349853515625,-5.759317398071289,-79.21099090576172,-4.220489978790283
1771038065207316000,15.96031591796875,-7.607056617736816,-35.722801208496094,-6.349645614624023
1771038065226282200,15.9792822265625,-17.729087829589844,-5.903078079223633,1.7236108779907227
1771038065245248300,15.998248291015624,-16.570140838623047,4.081799507141113,0.91294926404953
1771038065264214300,16.01721435546875,-13.787094116210938,7.952243804931641,0.21076136827468872
1771038065283180500,16.0361806640625,-10.959933280944824,10.043828964233398,0.598278284072876
1771038065302146600,16.055146484375,-13.596307754516602,12.086525917053223,0.4966003894805908
1771038065321112600,16.074112548828126,-16.933509826660156,14.60201644897461,0.7816240787506104
1771038065340078600,16.09307861328125,-22.662288665771484,17.122013092041016,2.755274772644043
1771038065359044900,16.112044921875,-13.865594863891602,19.19287872314453,4.824584007263184
1771038065378011000,16.131010986328125,-4.7025346755981445,19.96731185913086,5.110075950622559
1771038065396977000,16.149976806640623,0.9465034008026123,16.339889526367188,7.335387706756592
1771038065415943200,16.168943115234374,13.458723068237305,5.638740539550781,11.709325790405273
1771038065434909200,16.1879091796875,21.921363830566406,-3.407443046569824,8.525460243225098
1771038065453875200,16.206875244140626,9.12668514251709,1.4062108993530273,4.722658634185791
1771038065472841200,16.22584130859375,2.883328437805176,8.125621795654297,2.4738619327545166
1771038065491807500,16.244807373046875,-19.506256103515625,7.911718368530273,16.146894454956055
1771038065510773500,16.2637734375,-41.08232879638672,0.8182001113891602,11.932462692260742
1771038065529739500,16.282739501953124,-28.521833419799805,-5.596960067749023,12.025779724121094
1771038065548705500,16.30170556640625,-11.327709197998047,-13.789212226867676,7.385248184204102
1771038065567671800,16.320671875,-6.192228317260742,-22.958698272705078,9.471216201782227
1771038065586637800,16.339637939453127,-25.351228713989258,-40.987762451171875,6.348754405975342
1771038065605603800,16.358603759765625,-39.93531799316406,-44.07851028442383,-1.721348762512207
1771038065624570000,16.377570068359375,90.20996856689453,-45.82354736328125,-17.692245483398438
1771038065643536100,16.3965361328125,37.5137825012207,-15.184732437133789,-11.007596969604492
1771038065662502100,16.415502197265624,4.578696250915527,-3.9061145782470703,-6.271963119506836
1771038065681468200,16.43446826171875,4.106119155883789,2.6982955932617188,-3.8596062660217285
1771038065700434400,16.453434326171877,11.025288581848145,9.419768333435059,-2.9686615467071533
1771038065719400400,16.472400390625,27.657747268676758,13.643837928771973,-4.067465305328369
1771038065738366500,16.491366455078126,7.854286193847656,11.72764778137207,-2.6579036712646484
1771038065757332500,16.51033251953125,1.313141942024231,10.823716163635254,-0.502273678779602
1771038065776298500,16.529298583984374,-2.320383071899414,10.988507270812988,1.2128522396087646
1771038065795264800,16.5482646484375,-2.890071392059326,11.571331024169922,1.4911315441131592
1771038065814230800,16.567230712890623,3.329873561859131,10.221586227416992,1.4861605167388916
1771038065833196800,16.58619677734375,-3.1623387336730957,8.26857852935791,-0.5850512981414795
1771038065852162800,16.605162841796876,-3.836587429046631,6.430360794067383,-1.210601568222046
1771038065871129000,16.624129150390626,21.917430877685547,-8.175045013427734,-7.412194728851318
1771038065890095000,16.64309521484375,16.592151641845703,-57.39948272705078,-3.4281444549560547
1771038065909061000,16.66206103515625,-9.079455375671387,-74.38555908203125,-3.2801504135131836
1771038065928027100,16.681027099609373,-11.127939224243164,-29.44141960144043,-2.7063465118408203
1771038065946993400,16.699993408203124,-19.14456558227539,-3.0511226654052734,1.8160240650177002
1771038065965959400,16.71895947265625,-13.788147926330566,7.0827460289001465,0.3525239825248718
1771038065984925400,16.737925537109376,-11.248559951782227,10.924354553222656,-0.49059629440307617
1771038066003891500,16.756891357421875,-8.527022361755371,11.797758102416992,-1.1763442754745483
1771038066022857700,16.775857666015625,-11.382949829101562,12.061548233032227,-1.97200345993042
1771038066041823700,16.79482373046875,-15.993412017822266,13.74637508392334,-2.507412910461426
1771038066060789800,16.813789794921874,-20.492202758789062,16.793298721313477,0.9005630016326904
1771038066079755800,16.832755859375,-9.24070930480957,16.892929077148438,2.9405360221862793
1771038066098721800,16.8517216796875,-3.319554328918457,16.98956298828125,4.424962520599365
1771038066117688000,16.87068798828125,-0.40206027030944824,12.277753829956055,8.317089080810547
1771038066136654000,16.889654052734375,35.285648345947266,2.276346206665039,15.863129615783691
1771038066155620000,16.9086201171875,12.660738945007324,-0.0077266693115234375,10.442953109741211
1771038066174586000,16.927586181640624,6.022078514099121,3.9262824058532715,5.867250442504883
1771038066193552100,16.94655224609375,0.052086830139160156,7.881441593170166,5.2344207763671875
1771038066212518400,16.965518310546877,-10.772564888000488,6.160876750946045,13.01852035522461
1771038066231484400,16.984484375,-35.710166931152344,1.7630176544189453,10.754252433776855
1771038066250450400,17.003450439453125,-26.452774047851562,-1.9340639114379883,9.251623153686523
1771038066269416400,17.02241650390625,-16.471866607666016,-9.752714157104492,6.388976097106934
1771038066288382500,17.041382568359374,-13.586641311645508,-23.166025161743164,5.42244815826416
1771038066307348700,17.0603486328125,-26.99880027770996,-41.394195556640625,2.423100233078003
1771038066326314800,17.079314697265627,-13.041498184204102,-45.192962646484375,-6.756720542907715
1771038066345280800,17.09828076171875,6.100495338439941,-42.991641998291016,-8.762453079223633
1771038066364246800,17.117246826171876,61.675086975097656,-14.447832107543945,-11.78614616394043
1771038066383212800,17.136212890625,14.76656723022461,-6.427833557128906,-7.476841926574707
1771038066402178800,17.1551787109375,4.947612762451172,-0.34918785095214844,-4.705732345581055
1771038066421145000,17.17414501953125,7.201759338378906,5.949217796325684,-3.893433094024658
1771038066440111000,17.193111083984373,27.383792877197266,12.731010437011719,-4.092647075653076
1771038066459077000,17.2120771484375,5.721675872802734,11.426678657531738,-2.359738826751709
1771038066478043100,17.231043212890626,-0.622312068939209,10.451336860656738,-1.1340243816375732
1771038066497009200,17.250009033203124,-2.3656952381134033,10.544157981872559,0.5021047592163086
1771038066515975200,17.26897509765625,-2.2466001510620117,11.310667037963867,0.8066609501838684
1771038066534941400,17.28794140625,2.663707971572876,10.51078987121582,1.3297642469406128
1771038066563390500,17.316390380859374,-2.769505023956299,8.105064392089844,-1.0647931098937988
1771038066582356500,17.3353564453125,-4.0297369956970215,4.530879974365234,-1.4347184896469116
1771038066601322500,17.354322509765623,45.93434524536133,-32.25550842285156,-8.717511177062988
1771038066620288500,17.37328857421875,-5.08986759185791,-79.55082702636719,-1.2321949005126953
1771038066639254500,17.392254638671876,-5.932995319366455,-51.69648742675781,-0.1389918327331543
1771038066658220800,17.411220703125,-16.489748001098633,-10.504682540893555,1.822679042816162
1771038066677186800,17.430186767578125,-15.81370735168457,2.724503993988037,-0.03846752643585205
1771038066696152800,17.44915283203125,-12.056682586669922,8.12649917602539,-1.406967043876648
1771038066715118800,17.468118896484373,-11.157378196716309,11.050621032714844,-1.3289519548416138
1771038066734084900,17.4870849609375,-9.638153076171875,11.266972541809082,-2.2558159828186035
1771038066753051000,17.50605078125,-15.693046569824219,12.997753143310547,-3.63568377494812
1771038066772017000,17.525016845703124,-28.112533569335938,16.393529891967773,-3.591362953186035
1771038066790983200,17.543983154296875,-10.337968826293945,17.38791275024414,0.05413818359375
1771038066809949200,17.56294921875,-2.6228652000427246,17.944942474365234,1.4560482501983643
1771038066828915200,17.581915283203124,-2.211859703063965,15.309249877929688,4.863691329956055
1771038066847881200,17.600881103515626,48.854820251464844,4.15077543258667,15.228620529174805
1771038066866847200,17.61984716796875,16.283309936523438,-1.0625324249267578,8.311625480651855
1771038066885813200,17.638813232421874,5.3887939453125,4.231051921844482,3.930785655975342
1771038066904779300,17.657779296875,-9.794869422912598,10.43619441986084,2.9013237953186035
1771038066923745300,17.676745361328123,-20.927724838256836,7.630485534667969,10.877532958984375
1771038066942711600,17.695711669921874,-34.1121826171875,2.6076645851135254,8.788434982299805
1771038066961677600,17.714677490234376,-24.566789627075195,-2.5188283920288086,10.081128120422363
1771038066980643600,17.7336435546875,-13.230578422546387,-11.030702590942383,9.584333419799805
1771038066999609600,17.752609619140625,-15.758746147155762,-27.19864273071289,9.61841869354248
1771038067018575600,17.77157568359375,-28.654525756835938,-42.715736389160156,4.949527263641357
1771038067037541600,17.790541748046873,-13.582971572875977,-42.36936950683594,-2.2832396030426025
1771038067056507600,17.809507568359376,23.735122680664062,-46.700435638427734,-10.582751274108887
1771038067075473700,17.8284736328125,61.156455993652344,-15.815313339233398,-11.95357894897461
1771038067094439700,17.847439697265624,4.80403995513916,-6.195036888122559,-7.308107852935791
1771038067113405700,17.86640576171875,3.1850526332855225,0.7364225387573242,-5.1868696212768555
1771038067132372000,17.8853720703125,8.56995964050293,6.102740287780762,-4.3149261474609375
1771038067151338000,17.904337890625,27.53281593322754,11.568493843078613,-5.117986679077148
1771038067170304000,17.923303955078126,8.098790168762207,10.279592514038086,-4.255591869354248
1771038067189270000,17.94227001953125,-1.3273158073425293,10.789774894714355,-3.7725281715393066
1771038067208236000,17.961236083984375,0.34810376167297363,11.109940528869629,-4.143880367279053
1771038067227202000,17.9802021484375,0.013106703758239746,11.171783447265625,-4.030838966369629
1771038067246168000,17.99916796875,2.990703582763672,10.82512092590332,-4.612133026123047
1771038067265134000,18.018134033203125,-2.0419650077819824,7.967896938323975,-5.014741897583008
1771038067284100000,18.03710009765625,-3.5006895065307617,6.551430702209473,-3.4193413257598877
1771038067303066000,18.056066162109374,-1.2560104131698608,1.7201037406921387,-2.39996075630188
1771038067322032400,18.075032470703125,10.95045280456543,-25.41765022277832,-3.274383544921875
1771038067340998100,18.093998046875,7.603677749633789,-66.28134155273438,3.798062801361084
1771038067359964400,18.11296435546875,-1.9234744310379028,-62.34313201904297,10.335766792297363
1771038067378930400,18.131930419921876,-12.044244766235352,-14.218914031982422,8.380626678466797
1771038067397896400,18.150896484375,-11.05609130859375,0.4503641128540039,0.18176400661468506
1771038067416862500,18.169862548828124,-12.181732177734375,5.918320655822754,-3.023764133453369
1771038067435828500,18.188828369140627,-13.233821868896484,8.082074165344238,-4.18869161605835
1771038067454794500,18.20779443359375,-14.215322494506836,9.835742950439453,-5.584237098693848
1771038067473760500,18.226760498046875,-17.17841148376465,12.355113983154297,-9.341493606567383
1771038067492726500,18.2457265625,-25.145084381103516,15.994417190551758,-8.654011726379395
1771038067511692500,18.264692626953124,-12.660329818725586,18.511310577392578,-2.292668104171753
1771038067530658600,18.283658447265626,-6.218225002288818,19.689346313476562,1.7193082571029663
1771038067549624600,18.30262451171875,-1.1223726272583008,18.810001373291016,5.216862678527832
1771038067568590600,18.321590576171875,38.41679763793945,8.187481880187988,11.728432655334473
1771038067587556600,18.340556640625,19.57870864868164,-2.0489397048950195,11.782480239868164
1771038067606522600,18.359522705078124,0.8501465320587158,3.6333847045898438,6.418546676635742
1771038067625489000,18.378489013671874,-9.26325798034668,8.310514450073242,3.1287431716918945
1771038067644454700,18.39745458984375,-12.303677558898926,6.497248649597168,12.155879974365234
1771038067663421000,18.4164208984375,-31.1553955078125,3.230499267578125,12.769872665405273
1771038067682387000,18.435386962890625,-27.20684814453125,-1.0740365982055664,12.542651176452637
1771038067701353000,18.45435302734375,-18.035377502441406,-9.624212265014648,9.403629302978516
1771038067720319000,18.473319091796874,-18.500133514404297,-25.383502960205078,11.782391548156738
1771038067739285000,18.492284912109376,-17.734943389892578,-34.9716796875,15.156515121459961
1771038067758251000,18.5112509765625,-18.328800201416016,-39.3472900390625,5.923249244689941
1771038067777217000,18.530217041015625,-30.112178802490234,-39.716495513916016,-0.1563873291015625
1771038067796183000,18.54918310546875,86.38629150390625,-19.966064453125,-9.73533821105957
1771038067815149000,18.568149169921874,25.64887046813965,-10.080397605895996,-6.66020393371582
1771038067834115000,18.587114990234376,11.263486862182617,-2.9225196838378906,-4.5914177894592285
1771038067853081000,18.6060810546875,6.404455184936523,2.1092886924743652,-4.619042873382568
1771038067872047000,18.625047119140625,7.603343963623047,7.155824184417725,-5.9912567138671875
1771038067891013000,18.64401318359375,8.896293640136719,9.027617454528809,-7.403799533843994
1771038067909979100,18.662979248046874,-0.14894652366638184,10.226963996887207,-6.332151412963867
1771038067928945200,18.681945068359376,-0.1966007947921753,11.147643089294434,-4.857398986816406
1771038067947911200,18.7009111328125,7.922738075256348,12.050827026367188,-3.7456934452056885
1771038067966877200,18.719877197265625,-2.187713384628296,10.154361724853516,-4.153481483459473
1771038067985843200,18.73884326171875,-3.881417751312256,6.920694351196289,-3.919893741607666
1771038068004809200,18.757809326171873,-4.864378929138184,5.58882999420166,-3.63101863861084
1771038068023775200,18.776775146484376,2.6594343185424805,-12.027837753295898,-0.8314381837844849
1771038068042741200,18.7957412109375,17.24345588684082,-46.718292236328125,-1.090914011001587
1771038068061707300,18.814707275390624,-1.4413127899169922,-79.87277221679688,12.339617729187012
1771038068080673300,18.83367333984375,-6.725411415100098,-28.569746017456055,16.3096923828125
1771038068099639300,18.852639404296873,-13.543766021728516,-3.644195556640625,5.968678951263428
1771038068118605300,18.871605224609375,-12.64395523071289,5.099050045013428,-0.16707324981689453
1771038068137571300,18.8905712890625,-13.544733047485352,8.667291641235352,-2.8636112213134766
1771038068156537300,18.909537353515624,-14.202380180358887,9.743453025817871,-6.201671123504639
1771038068175503400,18.92850341796875,-17.40021514892578,10.809455871582031,-9.716487884521484
1771038068194469400,18.947469482421877,-25.298124313354492,14.00036907196045,-10.584433555603027
1771038068213435400,18.966435302734375,-20.508697509765625,20.40311050415039,-4.779043197631836
1771038068232401400,18.9854013671875,-13.944690704345703,23.591449737548828,2.9452123641967773
1771038068251367400,19.004367431640624,-4.376241683959961,17.7354736328125,3.2989017963409424
1771038068270333400,19.02333349609375,21.78595542907715,11.353433609008789,11.247722625732422
1771038068289299500,19.042299560546876,29.050573348999023,-0.9607143402099609,16.066242218017578
1771038068308265500,19.061265380859375,6.744487762451172,1.174821376800537,10.963841438293457
1771038068327231500,19.0802314453125,-4.0522541999816895,6.33319616317749,4.482995510101318
1771038068346197500,19.099197509765624,-6.050790309906006,10.11911392211914,2.6068971157073975
1771038068365163500,19.11816357421875,-15.936567306518555,4.983003616333008,11.00699520111084
1771038068384129500,19.137129638671876,-36.829776763916016,0.22265243530273438,13.913125038146973
1771038068403095600,19.156095458984375,-27.886478424072266,-7.737497329711914,11.483926773071289
1771038068422061600,19.1750615234375,-19.037212371826172,-20.777164459228516,10.830538749694824
1771038068441027600,19.194027587890623,-13.418725967407227,-29.618370056152344,21.349151611328125
1771038068459993600,19.21299365234375,-16.38199806213379,-39.2684326171875,18.3668212890625
1771038068478959600,19.231959716796876,-27.74700355529785,-38.29999542236328,5.857375144958496
1771038068497925600,19.250925537109374,133.6446990966797,-39.337520599365234,-20.244243621826172
1771038068516891600,19.2698916015625,24.724109649658203,-15.075396537780762,-8.394986152648926
1771038068535857700,19.288857666015623,1.8117903470993042,-5.019493103027344,-4.715732574462891
1771038068554823700,19.30782373046875,4.969105243682861,1.189101219177246,-4.940754413604736
1771038068573789400,19.32678955078125,9.408093452453613,7.792112827301025,-6.473108291625977
1771038068592755700,19.345755615234374,31.083715438842773,10.819523811340332,-9.12891674041748
1771038068611721500,19.364721435546876,5.866623878479004,9.719206809997559,-6.20455265045166
1771038068630687700,19.383687744140627,-0.6897305250167847,9.78700065612793,-4.7656660079956055
1771038068649653500,19.402653564453125,-1.8964234590530396,10.233707427978516,-2.31070876121521
1771038068668619500,19.42161962890625,-1.9563560485839844,10.722850799560547,-1.4477356672286987
1771038068687585500,19.44058544921875,0.7006506323814392,9.26981258392334,-1.9342589378356934
1771038068706551600,19.459551513671876,-1.794387698173523,7.683176517486572,-2.7399325370788574
1771038068725517600,19.478517578125,-3.969379425048828,5.300867080688477,-2.135683059692383
1771038068744483600,19.497483642578125,22.919261932373047,-17.178638458251953,-2.887603282928467
1771038068782415600,19.53541552734375,-3.279344320297241,-65.9476547241211,2.0100412368774414
1771038068810864600,19.56386474609375,-14.165580749511719,-5.313565254211426,2.9550535678863525
1771038068829830700,19.58283056640625,-13.86391830444336,4.75918436050415,0.2590099573135376
1771038068848796700,19.601796630859376,-13.063592910766602,7.152530670166016,-2.0017929077148438
1771038068867762700,19.6207626953125,-11.378083229064941,8.74676513671875,-5.8796515464782715
1771038068896211700,19.649211669921876,-28.893882751464844,10.394645690917969,-13.489529609680176
1771038068915177700,19.668177734375,-25.056255340576172,16.206361770629883,-6.933785438537598
1771038068934143500,19.6871435546875,-9.61170768737793,20.998964309692383,-1.7645986080169678
1771038068953109500,19.706109619140626,-7.294432640075684,20.233652114868164,1.9699780941009521
1771038068972075500,19.725075439453125,4.971909523010254,14.060338020324707,8.52869701385498
1771038068991041500,19.74404150390625,41.51150131225586,-0.6981430053710938,22.5770320892334
1771038069010007600,19.763007568359374,8.378211975097656,0.6545476913452148,13.610587120056152
1771038069028973600,19.7819736328125,0.23768401145935059,5.819484710693359,4.063973426818848
1771038069047939600,19.800939697265626,-2.6831116676330566,10.350695610046387,7.375370502471924
1771038069066905600,19.819905517578125,-21.55844497680664,7.456782341003418,12.499967575073242
1771038069085871600,19.83887158203125,-29.90545082092285,3.6276144981384277,12.322637557983398
1771038069104837600,19.857837646484374,-26.024341583251953,-2.0285654067993164,9.992531776428223
1771038069123803600,19.8768037109375,-24.8575496673584,-14.782431602478027,9.447900772094727
1771038069142769700,19.895769775390626,-18.91889762878418,-29.97119903564453,15.00143814086914
1771038069161735700,19.914735595703124,-16.190227508544922,-37.65206527709961,16.67392349243164
1771038069180701700,19.93370166015625,-9.676335334777832,-37.95053482055664,4.086716651916504
1771038069199667500,19.95266748046875,60.21364212036133,-44.642791748046875,-7.395252704620361
1771038069218633500,19.971633544921875,54.38848876953125,-14.600153923034668,-8.26513671875
1771038069237599500,19.990599609375,11.164314270019531,-8.09558391571045,-4.532668590545654
1771038069256565500,20.0095654296875,2.282383680343628,-0.6274518966674805,-4.8927321434021
1771038069275531500,20.028531494140626,3.9430112838745117,6.146010875701904,-5.705758094787598
1771038069294497500,20.04749755859375,29.475574493408203,10.545297622680664,-9.240509033203125
1771038069313463600,20.066463623046875,8.118581771850586,9.191192626953125,-6.542275428771973
1771038069332429600,20.0854296875,-1.1074719429016113,9.85959529876709,-6.472750663757324
1771038069351395600,20.1043955078125,-2.8766746520996094,10.85746955871582,-4.541323661804199
1771038069370361600,20.123361572265626,-1.1012390851974487,11.591438293457031,-3.8869242668151855
1771038069389327400,20.142327392578125,-0.585295557975769,9.718254089355469,-4.217896938323975
1771038069408293400,20.16129345703125,-2.9232218265533447,6.684943675994873,-4.348302364349365
1771038069427259400,20.18025927734375,-4.103121757507324,5.595974922180176,-4.358428955078125
1771038069446225400,20.199225341796875,15.787964820861816,-15.513126373291016,-2.4049086570739746
1771038069465191400,20.21819140625,9.497333526611328,-55.62617492675781,11.771008491516113
1771038069484157400,20.237157470703124,0.19337964057922363,-73.77212524414062,15.216167449951172
1771038069503123500,20.25612353515625,-6.665161609649658,-19.502729415893555,15.750226020812988
1771038069522089500,20.27508935546875,-13.59376335144043,-0.2283954620361328,5.648801803588867
1771038069541055500,20.294055419921875,-11.392335891723633,5.612986087799072,-1.0905380249023438
1771038069560021200,20.313021240234374,-11.160900115966797,8.47154426574707,-4.941836357116699
1771038069578987300,20.3319873046875,-11.466950416564941,9.068833351135254,-8.238262176513672
1771038069597953300,20.350953369140626,-14.79537296295166,9.647031784057617,-12.213517189025879
1771038069616919300,20.369919189453125,-19.734220504760742,11.281801223754883,-12.561630249023438
1771038069635885300,20.38888525390625,-16.121490478515625,14.900687217712402,-9.208383560180664
1771038069654851300,20.407851318359373,-10.91943073272705,15.739816665649414,-4.1248908042907715
1771038069673817300,20.4268173828125,-5.0409417152404785,13.199810981750488,-1.8379144668579102
1771038069692783400,20.445783447265626,-4.790038585662842,11.555475234985352,-1.1203473806381226
1771038069711749000,20.4647490234375,56.45578384399414,3.0465593338012695,14.703636169433594
1771038069730715100,20.483715087890626,3.695854663848877,3.2309842109680176,8.340131759643555
1771038069749681200,20.50268115234375,-9.130946159362793,7.648000717163086,-1.6918703317642212
1771038069768647200,20.521647216796875,-9.157171249389648,7.154414176940918,0.6076397895812988
1771038069787613200,20.54061328125,-9.524060249328613,6.170820236206055,5.7649455070495605
1771038069816062200,20.569062255859375,-28.401655197143555,3.233458995819092,5.91507625579834
1771038069835028200,20.5880283203125,-28.954822540283203,-6.108635902404785,5.096704959869385
1771038069853994000,20.606993896484376,-23.230642318725586,-21.481307983398438,12.57840633392334
1771038069872960000,20.6259599609375,-16.6422176361084,-34.504547119140625,18.144847869873047
1771038069891926000,20.644926025390625,-11.578838348388672,-34.57227325439453,10.537446975708008
1771038069910892000,20.66389208984375,-56.08068084716797,-32.405677795410156,3.208127737045288
1771038069929858000,20.682858154296873,103.46205139160156,-18.07345962524414,-4.355335235595703
1771038069948824000,20.701823974609376,29.573410034179688,-7.271307945251465,-1.5992748737335205
1771038069967790000,20.7207900390625,8.969612121582031,-3.4935741424560547,-3.739243507385254
1771038069986755800,20.739755859375,4.145673751831055,1.5472846031188965,-4.552104949951172
1771038070005721900,20.758721923828126,4.1460065841674805,6.366238117218018,-5.796633243560791
1771038070024687900,20.77768798828125,15.299317359924316,9.461206436157227,-8.251739501953125
1771038070043654000,20.79665380859375,7.486285209655762,10.033617973327637,-5.165082931518555
1771038070062620000,20.815619873046874,-3.5976815223693848,10.93420696258545,-2.2263216972351074
1771038070081586000,20.8345859375,-3.7159981727600098,11.6580810546875,-0.6619093418121338
1771038070100552000,20.853552001953126,-0.2364974021911621,9.422260284423828,-0.6940891742706299
1771038070119518000,20.87251806640625,-1.9565958976745605,7.8690690994262695,-1.1014348268508911
1771038070138483700,20.891483642578127,-3.751804828643799,2.4779176712036133,-0.25825583934783936
1771038070157449700,20.91044970703125,41.839599609375,-35.00220489501953,14.368497848510742
1771038070176415700,20.929415771484376,4.99669885635376,-76.47540283203125,22.811986923217773
1771038070195381800,20.9483818359375,-4.836847305297852,-43.12840270996094,19.713367462158203
1771038070214347800,20.96734765625,-17.1353702545166,-6.857105255126953,7.2888264656066895
1771038070233313800,20.986313720703127,-13.87765121459961,3.014498710632324,-1.1007699966430664
1771038070252279600,21.005279541015625,-13.902338981628418,5.033792495727539,-8.681659698486328
1771038070271245600,21.02424560546875,-14.764634132385254,4.448553085327148,-12.083621978759766
1771038070290211600,21.043211669921874,-17.094768524169922,6.703352451324463,-13.537149429321289
1771038070309177600,21.062177490234376,-20.072505950927734,8.071843147277832,-14.750543594360352
1771038070337626600,21.090626708984374,-11.219968795776367,11.498588562011719,-9.63766860961914
1771038070356592600,21.109592529296876,-6.913872718811035,14.718221664428711,-5.221785545349121
1771038070375558400,21.128558349609374,-4.354784965515137,15.323049545288086,-3.59426212310791
1771038070394524400,21.1475244140625,33.333580017089844,16.73153305053711,3.65585994720459
1771038070413490400,21.166490478515627,21.878917694091797,8.868966102600098,9.774624824523926
1771038070432456400,21.18545654296875,-1.9800230264663696,8.369821548461914,10.797627449035645
1771038070451422500,21.20442236328125,-15.732714653015137,13.514652252197266,-0.24401259422302246
1771038070470388500,21.223388427734374,-7.931033134460449,10.188619613647461,0.6309192180633545
1771038070489354500,21.2423544921875,-14.121011734008789,5.92475700378418,5.184726715087891
1771038070508320500,21.261320556640626,-24.256763458251953,2.6102447509765625,12.438872337341309
1771038070527286300,21.280286376953125,-35.737403869628906,-10.830055236816406,14.983091354370117
1771038070546252300,21.299252197265623,-23.296939849853516,-28.19601058959961,20.458885192871094
1771038070565218300,21.31821826171875,-13.807875633239746,-33.56328582763672,26.772634506225586
1771038070584184300,21.337184326171876,-11.40793228149414,-32.52647399902344,16.11219024658203
1771038070603150300,21.356150390625,-40.759986877441406,-26.274959564208984,5.124923229217529
1771038070622116000,21.3751162109375,127.72383117675781,-42.66490936279297,-26.79767608642578
1771038070641082000,21.39408203125,18.26154136657715,-17.895137786865234,-13.269403457641602
1771038070660048100,21.413048095703125,4.304968357086182,-6.471622467041016,-6.703333854675293
1771038070679014100,21.43201416015625,7.489435195922852,2.8456039428710938,-6.956026077270508
1771038070697980200,21.450980224609374,19.45216941833496,7.5503644943237305,-9.565902709960938
1771038070716946200,21.4699462890625,4.941981315612793,8.547011375427246,-10.033580780029297
1771038070735912200,21.488912109375,1.4582724571228027,9.063141822814941,-9.894804000854492
1771038070754878000,21.5078779296875,17.551979064941406,11.418983459472656,-10.154624938964844
1771038070773844000,21.526843994140624,4.092504024505615,12.033286094665527,-9.160015106201172
1771038070792810000,21.54581005859375,-1.0948365926742554,7.9033050537109375,-7.261900901794434
1771038070811776000,21.56477587890625,-1.2028051614761353,5.4619035720825195,-5.812158584594727
1771038070830742000,21.583741943359374,-1.2010610103607178,2.166891098022461,-4.7075886726379395
1771038070849708000,21.6027080078125,-0.5008603930473328,-15.892266273498535,1.4213509559631348
1771038070868674000,21.621674072265623,-2.3167033195495605,-49.52705001831055,6.296221733093262
1771038070887639800,21.640639892578125,2.398386001586914,-71.86912536621094,20.138900756835938
1771038070916088800,21.6690888671875,-0.9094030857086182,-7.491874694824219,14.893915176391602
1771038070935054800,21.688054931640625,-6.127093315124512,3.6147923469543457,5.905650615692139
1771038070954020900,21.707020751953124,-8.828710556030273,7.053859710693359,1.214293122291565
1771038070972987000,21.72598681640625,-12.826055526733398,8.57776165008545,-1.164509892463684
1771038070991952600,21.74495263671875,-16.900482177734375,10.24656867980957,-5.181182384490967
1771038071010918700,21.763918701171875,-19.767168045043945,13.778619766235352,-6.758489608764648
1771038071029884700,21.782884765625,-11.754843711853027,16.11231231689453,-4.637536525726318
1771038071048850700,21.8018505859375,-3.8906302452087402,15.497102737426758,-4.299230575561523
1771038071067816700,21.820816650390626,-1.7535948753356934,12.213973045349121,-1.712653398513794
1771038071086782700,21.83978271484375,1.6171010732650757,12.734955787658691,0.04190099239349365
1771038071105748700,21.858748779296874,23.481857299804688,11.982987403869629,8.542963027954102
1771038071124714500,21.877714599609376,32.079402923583984,3.7104640007019043,4.5793962478637695
1771038071143680500,21.896680419921875,6.478850364685059,5.260638236999512,2.144932270050049
1771038071162646500,21.915646484375,-24.213882446289062,12.596681594848633,1.1256275177001953
1771038071181612500,21.934612548828124,-19.234708786010742,13.948868751525879,10.745915412902832
1771038071200578600,21.95357861328125,-10.61207103729248,8.491990089416504,7.830191135406494
1771038071219544300,21.97254443359375,-15.524297714233398,5.421333312988281,9.235424041748047
1771038071238510300,21.99151025390625,-12.61774730682373,0.5505990982055664,12.899526596069336
1771038071257476400,22.010476318359373,-19.790069580078125,-12.540703773498535,16.305742263793945
1771038071276442400,22.0294423828125,-7.396182537078857,-29.32367706298828,28.869792938232422
1771038071295408400,22.048408447265626,-18.40843391418457,-54.11962890625,19.663841247558594
1771038071314374400,22.06737451171875,-40.20629119873047,-54.918373107910156,1.073047161102295
1771038071333340400,22.08634033203125,112.00834655761719,-37.85462951660156,-0.5223209857940674
1771038071352306400,22.105306396484377,50.08942413330078,-8.687345504760742,-0.5330312252044678
1771038071371272200,22.124272216796875,19.118078231811523,-2.9146957397460938,-2.293501138687134
1771038071390238200,22.14323828125,14.036102294921875,1.6013226509094238,-2.199611186981201
1771038071409204200,22.162204345703124,6.722188949584961,5.268901348114014,-2.52300763130188
1771038071428170200,22.181170166015626,7.220973014831543,8.60992431640625,-4.033600330352783
1771038071447136300,22.20013623046875,2.468569040298462,10.022774696350098,-3.9839181900024414
1771038071466102300,22.219102294921875,-1.2025091648101807,9.964576721191406,-3.3076705932617188
1771038071485068000,22.238068115234373,-0.2186112403869629,11.017457962036133,-2.0950396060943604
1771038071504034000,22.257033935546875,5.4991559982299805,11.607046127319336,-1.41937255859375
1771038071523000000,22.276,-1.7734981775283813,8.818254470825195,-2.4040818214416504
1771038071541966000,22.294966064453124,-3.7544379234313965,7.19350528717041,-2.047198534011841
1771038071560932000,22.31393212890625,9.567526817321777,0.14138317108154297,-3.3407320976257324
1771038071579898000,22.332898193359377,18.072214126586914,-36.16232681274414,5.990726470947266
1771038071598864000,22.35186376953125,-3.905533790588379,-69.89009857177734,8.385624885559082
1771038071617830000,22.370829833984374,-0.12415885925292969,-48.64933395385742,1.6244627237319946
1771038071636796000,22.3897958984375,-13.441844940185547,-8.532415390014648,6.989950656890869
1771038071655762000,22.408761962890626,-13.824901580810547,4.927951812744141,1.8982325792312622
1771038071674728000,22.42772802734375,-12.451629638671875,8.113485336303711,-2.1777243614196777
1771038071693694000,22.44669384765625,-12.480655670166016,11.081938743591309,-4.282265663146973
1771038071722142700,22.475142822265624,-15.163982391357422,14.823383331298828,-6.290833473205566
1771038071741108700,22.494108642578126,-16.449365615844727,17.553714752197266,-5.516107559204102
1771038071760074800,22.51307470703125,-16.01594352722168,19.909862518310547,-2.380509853363037
1771038071779040800,22.532040771484375,-7.926841735839844,20.72718048095703,1.0796327590942383
1771038071798006800,22.5510068359375,-4.0908918380737305,16.378829956054688,2.0048608779907227
1771038071816972800,22.569972900390624,6.779375076293945,9.414931297302246,4.193815231323242
1771038071835938600,22.5889384765625,44.75947570800781,-4.24526309967041,14.77590560913086
1771038071854904600,22.607904541015625,4.324717044830322,1.4792895317077637,6.209650039672852
1771038071873870600,22.62687060546875,-18.30624771118164,9.12282943725586,2.3669872283935547
1771038071902319600,22.655319580078125,-12.51362133026123,3.807803153991699,11.267139434814453
1771038071921285600,22.67428564453125,-31.84217643737793,-0.6368179321289062,16.030052185058594
1771038071940251600,22.693251708984373,-24.812362670898438,-7.479909896850586,13.84043025970459
1771038071959217400,22.712217529296876,-15.110016822814941,-14.05053997039795,14.942129135131836
1771038071978183400,22.731183349609374,-7.938581943511963,-22.852741241455078,21.08224105834961
1771038071997149400,22.7501494140625,-14.116937637329102,-38.445308685302734,16.471426010131836
1771038072016115500,22.769115478515626,-42.16999053955078,-41.5108642578125,7.1397786140441895
1771038072035081500,22.78808154296875,106.31729888916016,-40.186500549316406,-22.278427124023438
1771038072063530500,22.816530517578126,5.393979072570801,-10.451607704162598,-8.088113784790039
1771038072082496300,22.835496337890625,9.043232917785645,-1.1332921981811523,-5.898861885070801
1771038072101462300,22.854462158203123,15.132135391235352,5.786699295043945,-6.221524715423584
1771038072120428300,22.87342822265625,19.343835830688477,8.490190505981445,-7.849054336547852
1771038072139394300,22.892394287109376,10.50953197479248,8.483797073364258,-7.88288688659668
1771038072167843300,22.92084326171875,4.077313423156738,10.49103832244873,-8.102118492126465
1771038072186809300,22.939809326171876,-1.614115595817566,10.824491500854492,-6.048213005065918
1771038072205775000,22.958775146484374,-0.9578590393066406,10.633011817932129,-5.622736930847168
1771038072224741000,22.9777412109375,8.229809761047363,9.504350662231445,-3.7155871391296387
1771038072243707100,22.99670703125,-3.371565818786621,5.9063897132873535,-4.608562469482422
1771038072262673200,23.015673095703125,-4.464231014251709,4.439425468444824,-4.360212326049805
1771038072281639200,23.03463916015625,0.2382584810256958,-14.627012252807617,-0.46120429039001465
1771038072300605200,23.053605224609374,13.38166618347168,-47.0057258605957,2.718329429626465
1771038072319571200,23.0725712890625,-5.006375312805176,-80.0931625366211,11.699562072753906
1771038072338537200,23.091537109375,-1.1018192768096924,-25.21805191040039,16.855764389038086
1771038072357503000,23.1105029296875,-9.918959617614746,-2.0091724395751953,8.565237045288086
1771038072376469000,23.129468994140623,-12.649595260620117,5.420527458190918,-0.9593901634216309
1771038072395435000,23.14843505859375,-15.08175277709961,6.984496593475342,-4.481438636779785
1771038072414401000,23.167401123046876,-16.53759002685547,9.204792022705078,-6.099955081939697
1771038072433367000,23.186366943359374,-17.350784301757812,11.105250358581543,-9.634827613830566
1771038072452333000,23.2053330078125,-20.946537017822266,15.189109802246094,-8.985429763793945
1771038072471299000,23.224299072265627,-21.772239685058594,20.981101989746094,-2.1262872219085693
1771038072490265000,23.24326513671875,-12.416975021362305,23.662742614746094,3.096461534500122
1771038072509230800,23.26223095703125,-1.7957587242126465,17.62725830078125,3.2952003479003906
1771038072528196900,23.28119677734375,24.77216911315918,12.55085277557373,7.992891788482666
1771038072547163000,23.300162841796876,33.02999496459961,-2.7843828201293945,17.25537872314453
1771038072566129000,23.31912890625,-0.3022782802581787,2.483485221862793,9.111847877502441
1771038072585095000,23.338094970703125,-16.0390567779541,10.549583435058594,4.818549156188965
1771038072604061000,23.35706103515625,-11.483816146850586,9.088263511657715,5.869311809539795
1771038072623027000,23.37602685546875,-14.86278247833252,3.5233731269836426,12.201562881469727
1771038072641992700,23.39499267578125,-31.455068588256836,-2.56235408782959,15.074490547180176
1771038072660958700,23.413958740234374,-22.1215763092041,-11.052879333496094,15.326221466064453
1771038072689407700,23.44240771484375,-12.832927703857422,-30.255207061767578,24.147844314575195
1771038072708373800,23.461373779296874,-14.049528121948242,-43.38505554199219,16.764198303222656
1771038072727339800,23.48033984375,-32.72068405151367,-45.54576110839844,7.1865339279174805
1771038072746305800,23.499305908203127,87.70824432373047,-33.17533874511719,-19.62360191345215
1771038072765271800,23.518271728515625,8.551633834838867,-12.424972534179688,-4.861734867095947
1771038072784237800,23.53723779296875,5.096579074859619,-2.706979751586914,-3.5934336185455322
1771038072803203800,23.556203857421874,12.578516006469727,5.4292893409729,-4.22838020324707
1771038072822169600,23.575169677734376,29.958023071289062,12.451014518737793,-6.757485389709473
1771038072841135600,23.594135498046874,14.892782211303711,10.092081069946289,-7.803295135498047
1771038072860101600,23.6131015625,0.5881884098052979,9.658268928527832,-6.921697616577148
1771038072879067600,23.632067626953123,-0.979832649230957,10.704139709472656,-6.45609712600708
1771038072898033700,23.65103369140625,0.738412082195282,10.643115043640137,-5.840996265411377
1771038072916999700,23.669999755859376,6.150905609130859,9.276171684265137,-6.212850570678711
1771038072935965700,23.688965576171874,2.943376302719116,4.247621059417725,-5.369087219238281
1771038072954931700,23.707931640625,-3.7007296085357666,3.1610794067382812,-3.4437758922576904
1771038072973897700,23.726897705078127,-1.2057931423187256,-4.7094316482543945,-2.080291748046875
1771038072992863500,23.745863525390625,-3.2656731605529785,-26.461570739746094,0.9619643688201904
1771038073011829500,23.76482958984375,8.084195137023926,-59.80839157104492,10.93917465209961
1771038073030795500,23.78379541015625,4.54344367980957,-52.17332077026367,19.880029678344727
1771038073049761500,23.802761474609376,-8.021882057189941,-13.482771873474121,12.211742401123047
1771038073068727600,23.8217275390625,-12.092246055603027,0.5328407287597656,2.6083521842956543
1771038073087693600,23.840693603515625,-12.455987930297852,7.01108980178833,-3.187553882598877
1771038073106659600,23.85965966796875,-13.701568603515625,9.163961410522461,-7.043048858642578
1771038073125625600,23.87862548828125,-14.054299354553223,10.542665481567383,-7.618075370788574
1771038073144591600,23.897591552734376,-15.354572296142578,11.627933502197266,-7.351234436035156
1771038073163557600,23.9165576171875,-14.864404678344727,14.461244583129883,-6.696408271789551
1771038073182523600,23.935523681640625,-13.809176445007324,17.508602142333984,-5.014702320098877
1771038073201489700,23.95448974609375,-7.898022651672363,18.511981964111328,-0.6083290576934814
1771038073220455400,23.973455322265625,-1.5985592603683472,17.429141998291016,1.6908960342407227
1771038073239421400,23.99242138671875,28.20562744140625,14.037642478942871,7.862318992614746
1771038073258387500,24.011387451171874,38.24128723144531,0.08444023132324219,12.699679374694824
1771038073277353500,24.030353515625,-9.762088775634766,5.195038795471191,7.433039665222168
1771038073296319500,24.049319580078127,-33.0450439453125,13.436786651611328,1.3938496112823486
1771038073315285500,24.068285400390625,-8.351248741149902,8.806007385253906,9.537160873413086
1771038073334251500,24.08725146484375,-19.015260696411133,4.1387152671813965,13.02457332611084
1771038073353217500,24.106217529296874,-25.133724212646484,-2.2703819274902344,14.683599472045898
1771038073372183600,24.12518359375,-22.201343536376953,-11.185079574584961,16.217756271362305
1771038073391149600,24.144149658203126,-16.50830841064453,-30.76028060913086,20.577835083007812
1771038073410115600,24.163115478515625,-14.66323471069336,-45.12575149536133,17.2296142578125
1771038073429081600,24.18208154296875,-47.511348724365234,-45.38744354248047,5.255353927612305
1771038073448047600,24.201047607421874,100.03874206542969,-37.386112213134766,-19.135074615478516
1771038073476496600,24.22949658203125,11.70801830291748,-7.499314308166504,-2.3986082077026367
1771038073495462700,24.248462646484374,9.570918083190918,0.2953639030456543,-1.535912275314331
1771038073514428700,24.2674287109375,18.67108154296875,6.810634613037109,-2.2914376258850098
1771038073533394400,24.28639453125,26.65560531616211,11.458980560302734,-4.381181240081787
1771038073552360400,24.3053603515625,16.226484298706055,11.050877571105957,-5.223811149597168
1771038073571326500,24.324326416015627,6.4687886238098145,10.109549522399902,-4.391908645629883
1771038073590292500,24.34329248046875,-0.2167341709136963,9.701528549194336,-3.424480438232422
1771038073609258500,24.362258544921875,-2.5107479095458984,10.713663101196289,-2.449603796005249
1771038073628224500,24.381224609375,-0.7003642320632935,10.554869651794434,-2.0973563194274902
1771038073647190500,24.4001904296875,5.719005584716797,8.007719039916992,-1.5093117952346802
1771038073666156500,24.419156494140626,-5.993277072906494,6.469297409057617,-1.7612658739089966
