time,seconds_elapsed,z,y,x
1771038049434566100,0.187566162109375,9.162470817565918,3.480375051498413,-0.3263612389564514
1771038049453532200,0.2065322265625,9.306422233581543,3.083247184753418,-0.23338711261749268
1771038049472498200,0.225498291015625,9.423314094543457,2.707702159881592,-0.1996873915195465
1771038049491464200,0.244464111328125,9.445297241210938,2.614122152328491,-0.3508816957473755
1771038049510430500,0.263430419921875,9.414249420166016,2.6351184844970703,-0.7735971212387085
1771038049529396500,0.282396484375,9.366133689880371,2.6299610137939453,-1.2366161346435547
1771038049548362800,0.30136279296875,9.34609317779541,2.5703744888305664,-1.487983226776123
1771038049567328800,0.320328857421875,9.357648849487305,2.4100027084350586,-1.67233145236969
1771038049586294800,0.339294677734375,9.33336353302002,2.441218376159668,-1.7604451179504395
1771038049605261000,0.358260986328125,9.34616470336914,2.48838210105896,-1.620968222618103
1771038049624227000,0.37722705078125,9.415457725524902,2.3216071128845215,-1.4593387842178345
1771038049643193000,0.396193115234375,9.520646095275879,2.0040817260742188,-1.229369044303894
1771038049662159400,0.415159423828125,9.613393783569336,1.6899219751358032,-0.9472086429595947
1771038049681125400,0.43412548828125,9.684605598449707,1.361519455909729,-0.724611222743988
1771038049700091400,0.45309130859375,9.741180419921875,1.0513856410980225,-0.4175752103328705
1771038049719057400,0.472057373046875,9.769704818725586,0.848122239112854,0.06286328285932541
1771038049738023700,0.491023681640625,9.757585525512695,0.7566303610801697,0.6224228739738464
1771038049756989700,0.50998974609375,9.710022926330566,0.7826341986656189,1.1284143924713135
1771038049775956000,0.5289560546875,9.654474258422852,0.9117206931114197,1.4595540761947632
1771038049794922000,0.547921875,9.632708549499512,1.0822651386260986,1.4866160154342651
1771038049813888000,0.566887939453125,9.613768577575684,1.3326714038848877,1.4035041332244873
1771038049832854000,0.58585400390625,9.5513334274292,1.6366510391235352,1.5045870542526245
1771038049851820300,0.6048203125,9.471364974975586,1.8851016759872437,1.7058802843093872
1771038049870786300,0.623786376953125,9.409041404724121,1.9853343963623047,1.9232203960418701
1771038049889752300,0.64275244140625,9.35189151763916,2.1123437881469727,2.061676502227783
1771038049908718300,0.66171826171875,9.308446884155273,2.283323287963867,2.075967311859131
1771038049927684600,0.6806845703125,9.268499374389648,2.45430326461792,2.059537887573242
1771038049946650600,0.699650634765625,9.235832214355469,2.557497262954712,2.080627679824829
1771038049965617000,0.718616943359375,9.256875991821289,2.5721845626831055,1.9658313989639282
1771038049984583000,0.7375830078125,9.309326171875,2.513218641281128,1.786215901374817
1771038050003549000,0.756548828125,9.348152160644531,2.4729957580566406,1.6330145597457886
1771038050022515000,0.775514892578125,9.377156257629395,2.457813262939453,1.482729434967041
1771038050041481000,0.79448095703125,9.387789726257324,2.4763853549957275,1.3810596466064453
1771038050060447200,0.813447265625,9.385921478271484,2.5216355323791504,1.3100414276123047
1771038050079413200,0.832413330078125,9.38561725616455,2.566612482070923,1.221915364265442
1771038050098379500,0.851379638671875,9.405943870544434,2.548557758331299,1.0970277786254883
1771038050117345500,0.870345458984375,9.456531524658203,2.407367706298828,0.9741596579551697
1771038050136311600,0.8893115234375,9.536999702453613,2.1146786212921143,0.8626533150672913
1771038050155277600,0.908277587890625,9.620283126831055,1.7662972211837769,0.7076289653778076
1771038050174243600,0.92724365234375,9.675588607788086,1.5134121179580688,0.512805700302124
1771038050193209900,0.9462099609375,9.705917358398438,1.3899351358413696,0.18340188264846802
1771038050212176000,0.96517578125,9.716713905334473,1.3021599054336548,-0.24541112780570984
1771038050231142000,0.984141845703125,9.714339256286621,1.176697850227356,-0.6460402011871338
1771038050250108200,1.003108154296875,9.705743789672852,1.0072795152664185,-0.9768921732902527
1771038050269074200,1.02207421875,9.685271263122559,0.7856019139289856,-1.3223975896835327
1771038050288040200,1.041040283203125,9.635307312011719,0.47198593616485596,-1.7630832195281982
1771038050307006200,1.060006103515625,9.514702796936035,0.019024260342121124,-2.3749630451202393
1771038050325972200,1.07897216796875,9.231874465942383,-0.5352903604507446,-3.264404773712158
1771038050344938500,1.0979384765625,8.806970596313477,-1.1093026399612427,-4.168585300445557
1771038050363904500,1.116904541015625,8.485995292663574,-1.4793541431427002,-4.687193870544434
1771038050382870500,1.13587060546875,8.295866012573242,-1.4614341259002686,-5.021275997161865
1771038050401836800,1.1548369140625,8.182915687561035,-1.196130394935608,-5.270631313323975
1771038050420802800,1.173802734375,7.96655797958374,-0.9363776445388794,-5.641590118408203
1771038050439768800,1.192768798828125,7.6405158042907715,-0.6778491139411926,-6.110108375549316
1771038050458734800,1.21173486328125,7.382058620452881,-0.5802435278892517,-6.429534435272217
1771038050477700900,1.230700927734375,7.182360649108887,-0.687717854976654,-6.641621112823486
1771038050496667000,1.2496669921875,6.8214192390441895,-1.0509238243103027,-6.966648578643799
1771038050515633200,1.268633056640625,6.347748279571533,-1.681352972984314,-7.283511161804199
1771038050534599200,1.28759912109375,5.977114677429199,-2.4322166442871094,-7.384362697601318
1771038050553565200,1.306565185546875,5.708096027374268,-3.3266735076904297,-7.24715518951416
1771038050572531500,1.325531494140625,5.276298522949219,-4.402353286743164,-6.996452331542969
1771038050591497500,1.34449755859375,4.539446830749512,-5.428966045379639,-6.788971900939941
1771038050610463500,1.36346337890625,3.661196708679199,-6.263517379760742,-6.598059177398682
1771038050629429500,1.382429443359375,2.7919363975524902,-6.899309158325195,-6.385531902313232
1771038050648395500,1.4013955078125,1.8555412292480469,-7.5397257804870605,-5.989981651306152
1771038050667361800,1.42036181640625,0.9615494012832642,-8.163949966430664,-5.347497940063477
1771038050686327800,1.439327880859375,0.47657260298728943,-8.493255615234375,-4.879331111907959
1771038050705293800,1.4582939453125,0.2749720811843872,-8.482243537902832,-4.913888931274414
1771038050724259800,1.477259765625,0.1748008131980896,-8.254743576049805,-5.291413307189941
1771038050743225900,1.496225830078125,0.13781003654003143,-7.936347961425781,-5.758974552154541
1771038050762192000,1.51519189453125,0.07259789109230042,-7.581446647644043,-6.219869136810303
1771038050781112000,1.534112060546875,-0.08439251780509949,-7.1928486824035645,-6.665297985076904
1771038050830916600,1.58391650390625,0.21390296518802643,-5.768818378448486,-7.927506923675537
1771038050849883000,1.6028828125,0.5310782194137573,-5.172913551330566,-8.314403533935547
1771038050868849000,1.621848876953125,0.7255256772041321,-4.552720546722412,-8.655445098876953
1771038050887815000,1.64081494140625,0.733917236328125,-3.9498560428619385,-8.94597053527832
1771038050906781000,1.659781005859375,0.8606269955635071,-3.478480100631714,-9.128520965576172
1771038050925747000,1.678746826171875,1.3059560060501099,-3.1609699726104736,-9.190926551818848
1771038050944713200,1.697713134765625,1.9519157409667969,-3.0089190006256104,-9.127256393432617
1771038050963679200,1.71667919921875,2.5878400802612305,-2.904993772506714,-9.00191593170166
1771038050982645200,1.735645263671875,3.3019096851348877,-2.790196180343628,-8.802419662475586
1771038051001611300,1.754611328125,4.023748874664307,-2.5990145206451416,-8.557158470153809
1771038051020577500,1.77357763671875,4.449124336242676,-2.4227347373962402,-8.396787643432617
1771038051039543600,1.79254345703125,4.657410621643066,-2.5339181423187256,-8.249737739562988
1771038051058509600,1.811509521484375,4.921576499938965,-2.690462589263916,-8.044245719909668
1771038051077475600,1.8304755859375,4.919289588928223,-3.1547136306762695,-7.8751983642578125
1771038051096441600,1.849441650390625,4.935286521911621,-3.8016116619110107,-7.573709487915039
1771038051115408000,1.868407958984375,4.875509262084961,-4.52213191986084,-7.207643032073975
1771038051134374000,1.887373779296875,4.789882183074951,-5.176915645599365,-6.81373405456543
1771038051153340000,1.90633984375,4.700685501098633,-5.911051273345947,-6.255670070648193
1771038051172306000,1.925305908203125,4.437267303466797,-6.784190654754639,-5.5186767578125
1771038051191272000,1.94427197265625,4.126701354980469,-7.641202449798584,-4.555519104003906
1771038051210238200,1.96323828125,4.080292224884033,-8.245424270629883,-3.3962604999542236
1771038051229204200,1.982204345703125,4.028106212615967,-8.60786247253418,-2.4185657501220703
1771038051248170200,2.001170166015625,3.8301448822021484,-8.80945110321045,-1.973310112953186
1771038051267136300,2.02013623046875,3.6568095684051514,-8.869709968566895,-2.031346559524536
1771038051286102500,2.0391025390625,3.5048000812530518,-8.858328819274902,-2.3273963928222656
1771038051305068500,2.058068603515625,3.3591604232788086,-8.897038459777832,-2.3935608863830566
1771038051324034600,2.07703466796875,3.1959614753723145,-9.0050687789917,-2.2056641578674316
1771038051343000600,2.09600048828125,3.020697832107544,-9.176312446594238,-1.6855432987213135
1771038051361966600,2.114966552734375,2.9048261642456055,-9.311659812927246,-1.012599229812622
1771038051380932900,2.133932861328125,2.6717519760131836,-9.434285163879395,-0.1624467521905899
1771038051399899000,2.15289892578125,2.263838291168213,-9.517723083496094,0.6770319938659668
1771038051418865000,2.171864990234375,1.8740757703781128,-9.534463882446289,1.3237146139144897
1771038051437831000,2.190830810546875,1.7941433191299438,-9.474857330322266,1.7828384637832642
1771038051456797200,2.209797119140625,1.8828706741333008,-9.368292808532715,2.2046027183532715
1771038051475763200,2.22876318359375,2.299346685409546,-9.187714576721191,2.5434794425964355
1771038051494729200,2.247729248046875,2.2085630893707275,-9.130236625671387,2.8162808418273926
1771038051513695200,2.2666953125,1.2981493473052979,-9.33826732635498,2.6985108852386475
1771038051532661500,2.28566162109375,2.9971442222595215,-9.254188537597656,1.2439863681793213
1771038051551627500,2.30462744140625,4.065488338470459,-8.915843963623047,0.38717561960220337
1771038051570593500,2.323593505859375,4.352774620056152,-8.787103652954102,0.10263656079769135
1771038051589559600,2.3425595703125,4.326842784881592,-8.797545433044434,-0.22803956270217896
1771038051608525800,2.36152587890625,4.2019500732421875,-8.844972610473633,-0.5295876860618591
1771038051627491800,2.380491943359375,4.062347412109375,-8.897933959960938,-0.70320725440979
1771038051646457900,2.399457763671875,3.9222497940063477,-8.958433151245117,-0.7299484014511108
1771038051665424000,2.418423828125,3.6865835189819336,-9.056082725524902,-0.7528896927833557
1771038051684390100,2.43739013671875,3.2575860023498535,-9.217050552368164,-0.7774945497512817
1771038051703356200,2.456356201171875,2.7482006549835205,-9.377461433410645,-0.8252168297767639
1771038051722322200,2.475322265625,2.2471048831939697,-9.503417015075684,-0.8977577686309814
1771038051741288400,2.494288330078125,2.3640122413635254,-9.470714569091797,-0.9420251250267029
1771038051760254500,2.51325439453125,3.789520502090454,-8.997812271118164,-0.9215746521949768
1771038051779220500,2.532220458984375,5.290600299835205,-8.257062911987305,-0.02915726974606514
1771038051798186800,2.551186767578125,5.244003772735596,-8.249744415283203,0.7826327681541443
1771038051817152800,2.57015283203125,4.10140323638916,-8.884708404541016,0.6409593224525452
1771038051836118800,2.589118896484375,2.6929173469543457,-9.427896499633789,0.18268033862113953
1771038051855084800,2.608084716796875,1.3588513135910034,-9.709416389465332,-0.2261582762002945
1771038051874051000,2.627051025390625,0.42838943004608154,-9.786531448364258,-0.4589729309082031
1771038051893017000,2.64601708984375,-0.015666326507925987,-9.796345710754395,-0.4491783678531647
1771038051911983000,2.664983154296875,0.17389936745166779,-9.803081512451172,-0.19937746226787567
1771038051930949400,2.683949462890625,0.7200621366500854,-9.779159545898438,-0.14116409420967102
1771038051949915400,2.702915283203125,0.5585192441940308,-9.769140243530273,-0.6498753428459167
1771038051968881400,2.72188134765625,-1.492921233177185,-9.66498851776123,-0.7277125120162964
1771038051987847700,2.74084765625,-1.9308695793151855,-9.57654857635498,-0.8554822206497192
1771038052006813700,2.759813720703125,-2.0691816806793213,-9.541622161865234,-0.9199531674385071
1771038052025779700,2.77877978515625,-2.5164175033569336,-9.433854103088379,-0.9167401790618896
1771038052044746000,2.79774609375,-2.828561782836914,-9.34373950958252,-0.9296088814735413
1771038052063712000,2.8167119140625,-2.483690023422241,-9.421689987182617,-1.1105984449386597
1771038052082678300,2.83567822265625,-1.841992974281311,-9.538947105407715,-1.3363940715789795
1771038052101644300,2.854644287109375,-1.3629891872406006,-9.600756645202637,-1.4622344970703125
1771038052120610300,2.8736103515625,-1.0093022584915161,-9.633427619934082,-1.5325665473937988
1771038052139576600,2.89257666015625,-0.5934094786643982,-9.66159725189209,-1.5721946954727173
1771038052158542600,2.91154248046875,-0.04624394327402115,-9.684381484985352,-1.5430488586425781
1771038052177508600,2.930508544921875,0.45835813879966736,-9.690900802612305,-1.4306397438049316
1771038052196475000,2.949474853515625,0.9964600801467896,-9.669380187988281,-1.2963563203811646
1771038052215441000,2.96844091796875,1.682950735092163,-9.596485137939453,-1.1160340309143066
1771038052234407200,2.9874072265625,2.6676831245422363,-9.392679214477539,-0.9118242263793945
1771038052253373200,3.006373291015625,3.6639552116394043,-8.982611656188965,-1.4347537755966187
1771038052272339200,3.025339111328125,4.03757905960083,-8.693822860717773,-2.0702152252197266
1771038052291305500,3.044305419921875,4.34327507019043,-8.491034507751465,-2.2822537422180176
1771038052310271500,3.063271484375,4.727560043334961,-8.34405517578125,-2.048729419708252
1771038052329237800,3.08223779296875,4.954411029815674,-8.32805347442627,-1.505892038345337
1771038052348203800,3.101203857421875,4.865667819976807,-8.458625793457031,-0.9733041524887085
1771038052367170000,3.120170166015625,4.660526752471924,-8.601032257080078,-0.687119722366333
1771038052386136000,3.139135986328125,4.459188461303711,-8.708904266357422,-0.6640956401824951
1771038052405102000,3.15810205078125,4.198896884918213,-8.832409858703613,-0.726772665977478
1771038052424068400,3.177068359375,3.777822494506836,-9.019608497619629,-0.7383085489273071
1771038052443034600,3.19603466796875,3.3574395179748535,-9.176390647888184,-0.8317808508872986
1771038052462000600,3.215000732421875,2.967331647872925,-9.285411834716797,-1.0707170963287354
1771038052480967000,3.233966796875,2.59137225151062,-9.35384750366211,-1.400261402130127
1771038052499933000,3.252932861328125,2.7924091815948486,-9.255144119262695,-1.6477738618850708
1771038052518899200,3.271899169921875,3.2045013904571533,-9.120125770568848,-1.6507158279418945
1771038052537865200,3.290865234375,3.262539863586426,-9.098933219909668,-1.653976559638977
1771038052556831500,3.30983154296875,2.8930959701538086,-9.168389320373535,-1.934169888496399
1771038052575797500,3.328797607421875,2.1753592491149902,-9.3138427734375,-2.1657631397247314
1771038052594763800,3.347763671875,1.052394986152649,-9.53169059753418,-2.0517630577087402
1771038052613729800,3.366729736328125,-0.0867174044251442,-9.652862548828125,-1.7277467250823975
1771038052632696000,3.385696044921875,-0.8732162117958069,-9.658385276794434,-1.4572198390960693
1771038052651662000,3.404662109375,-0.9519715905189514,-9.694205284118652,-1.134253978729248
1771038052670628400,3.42362841796875,-0.5516378879547119,-9.769617080688477,-0.6485807299613953
1771038052689594600,3.4425947265625,-0.5634086728096008,-9.780776977539062,-0.4351653456687927
1771038052708560600,3.461560546875,-2.3633031845092773,-9.51758098602295,0.028800206258893013
1771038052727527000,3.48052685546875,-3.0424811840057373,-9.29834270477295,0.6741772890090942
1771038052746493000,3.499492919921875,-2.8190081119537354,-9.349326133728027,0.9020483493804932
1771038052765459200,3.518459228515625,-2.911269187927246,-9.327743530273438,0.8295256495475769
1771038052784425200,3.53742529296875,-3.0071632862091064,-9.307191848754883,0.709615170955658
1771038052803391500,3.5563916015625,-2.8378677368164062,-9.367542266845703,0.6050036549568176
1771038052822357800,3.575357666015625,-2.4285340309143066,-9.482590675354004,0.5942069888114929
1771038052841323800,3.59432373046875,-1.9699159860610962,-9.585512161254883,0.6385742425918579
1771038052860290000,3.6132900390625,-1.4318029880523682,-9.680681228637695,0.6361939311027527
1771038052879256300,3.63225634765625,-0.7415251731872559,-9.76213550567627,0.5667737126350403
1771038052898222300,3.651222412109375,0.005704166833311319,-9.793821334838867,0.501417875289917
1771038052917188600,3.670188720703125,0.6757209300994873,-9.770559310913086,0.4999498426914215
1771038052936155000,3.68915478515625,1.2813159227371216,-9.708290100097656,0.5269927382469177
1771038052955121000,3.708120849609375,1.797409176826477,-9.623784065246582,0.567878007888794
1771038052974087200,3.727087158203125,1.9667810201644897,-9.592037200927734,0.5431222915649414
1771038052993053400,3.746053466796875,2.514582395553589,-9.47778034210205,0.13766606152057648
1771038053012019500,3.76501953125,3.0022616386413574,-9.321124076843262,-0.5229426622390747
1771038053030985700,3.78398583984375,3.08013653755188,-9.273626327514648,-0.8264414072036743
1771038053049952000,3.802951904296875,3.3495078086853027,-9.180384635925293,-0.8195805549621582
1771038053068918300,3.821918212890625,3.799142360687256,-9.026114463806152,-0.5159248113632202
1771038053087884300,3.84088427734375,4.1487836837768555,-8.885685920715332,-0.050683654844760895
1771038053106850600,3.8598505859375,4.322848796844482,-8.791240692138672,0.44436994194984436
1771038053125816800,3.87881689453125,4.345662593841553,-8.753305435180664,0.8156334757804871
1771038053144783000,3.897783203125,4.161743640899658,-8.81686782836914,1.055038332939148
1771038053163749000,3.9167490234375,3.7240700721740723,-8.9848051071167,1.254969596862793
1771038053182715400,3.93571533203125,3.342641592025757,-9.122175216674805,1.3353108167648315
1771038053201681700,3.954681640625,3.2076330184936523,-9.185790061950684,1.2258678674697876
1771038053220648000,3.97364794921875,3.1723880767822266,-9.22923755645752,0.9630793929100037
1771038053239614000,3.992614013671875,3.158573865890503,-9.238992691040039,0.9136775135993958
1771038053258580200,4.011580322265625,3.670456886291504,-9.006063461303711,1.260534644126892
1771038053277546500,4.03054638671875,3.8360559940338135,-8.883502006530762,1.5932561159133911
1771038053296512800,4.0495126953125,3.6632373332977295,-9.012275695800781,1.2369158267974854
1771038053315479000,4.06847900390625,2.9660253524780273,-9.338722229003906,0.4016757607460022
1771038053334445000,4.087445068359375,1.2651830911636353,-9.72464656829834,-0.0305689238011837
1771038053353411300,4.106411376953125,-0.7527396082878113,-9.774794578552246,0.2390751838684082
1771038053372377600,4.125377685546875,-1.6629458665847778,-9.643128395080566,0.6442603468894958
1771038053391343900,4.14434375,-0.918744683265686,-9.72806167602539,0.8313217759132385
1771038053410310100,4.16331005859375,0.3233436644077301,-9.68140983581543,1.5284452438354492
1771038053429276400,4.1822763671875,-1.1455961465835571,-9.387876510620117,2.593409538269043
1771038053448242700,4.20124267578125,-3.40623140335083,-8.892206192016602,2.344491958618164
1771038053467208700,4.220208740234375,-3.337196111679077,-8.821422576904297,2.6862635612487793
1771038053486175000,4.239175048828125,-3.265709400177002,-8.850604057312012,2.6781222820281982
1771038053505141200,4.258141357421875,-3.139052391052246,-8.955299377441406,2.473729133605957
1771038053524107500,4.277107421875,-2.7881712913513184,-9.122797012329102,2.273995876312256
1771038053543073800,4.29607373046875,-2.1772048473358154,-9.355646133422852,1.9753601551055908
1771038053562040000,4.3150400390625,-1.4218649864196777,-9.570015907287598,1.6010897159576416
1771038053581006300,4.33400634765625,-0.7615124583244324,-9.694952964782715,1.264259696006775
1771038053599972400,4.352972412109375,-0.18109549582004547,-9.75789737701416,0.9597030282020569
1771038053618938600,4.371938720703125,0.35049426555633545,-9.776583671569824,0.6826086044311523
1771038053637905000,4.39090478515625,0.9447812438011169,-9.74945068359375,0.47537848353385925
1771038053656871200,4.40987109375,1.634296178817749,-9.663381576538086,0.344238817691803
1771038053675837400,4.42883740234375,2.155066967010498,-9.560986518859863,0.33706948161125183
1771038053694803700,4.4478037109375,3.1289029121398926,-9.29369068145752,0.08757186681032181
1771038053713770000,4.46677001953125,4.004907608032227,-8.887577056884766,-1.0686718225479126
1771038053732736300,4.485736328125,3.937253475189209,-8.849286079406738,-1.5357555150985718
1771038053751702500,4.50470263671875,4.331573009490967,-8.692949295043945,-1.3566468954086304
1771038053770668800,4.523668701171875,4.901785373687744,-8.461484909057617,-0.739037811756134
1771038053789635000,4.542635009765625,5.114859104156494,-8.366686820983887,0.0844816341996193
1771038053808601300,4.561601318359375,5.181140899658203,-8.279373168945312,0.8821204900741577
1771038053827567600,4.580567626953125,5.2905426025390625,-8.146120071411133,1.349544882774353
1771038053846534000,4.599533935546875,5.276257038116455,-8.120674133300781,1.5447145700454712
1771038053865500200,4.618500244140625,4.987675189971924,-8.298179626464844,1.5600292682647705
1771038053884466400,4.637466552734375,4.72218656539917,-8.493435859680176,1.3163964748382568
1771038053903432700,4.6564326171875,4.35390043258667,-8.752097129821777,0.7840439677238464
1771038053922399000,4.67539892578125,3.6037309169769287,-9.12048625946045,-0.01566901244223118
1771038053941365200,4.694365234375,3.758784770965576,-9.057502746582031,-0.059854503720998764
1771038053960331500,4.71333154296875,4.298816204071045,-8.808634757995605,0.3138745129108429
1771038053979297800,4.7322978515625,4.5474724769592285,-8.688394546508789,-0.05184024199843407
1771038053998264000,4.75126416015625,4.201447010040283,-8.830832481384277,-0.7311882376670837
1771038054017230300,4.770230224609375,3.029900312423706,-9.29781436920166,-0.7353481650352478
1771038054036196600,4.789196533203125,1.519905924797058,-9.685656547546387,-0.21984705328941345
1771038054055163000,4.808162841796875,0.24104565382003784,-9.792731285095215,0.4633534848690033
1771038054074129200,4.827129150390625,-0.4164842963218689,-9.739678382873535,1.0656400918960571
1771038054093095400,4.846095458984375,-0.12840241193771362,-9.681957244873047,1.55357825756073
1771038054112061700,4.865061767578125,0.1112155169248581,-9.56749153137207,2.1496808528900146
1771038054131028000,4.884028076171875,-2.1134448051452637,-9.231415748596191,2.546505928039551
1771038054149994200,4.902994140625,-2.9763474464416504,-8.974793434143066,2.6009299755096436
1771038054168960500,4.92196044921875,-2.923957347869873,-8.981473922729492,2.637040853500366
1771038054187926800,4.9409267578125,-3.2393741607666016,-8.90957260131836,2.50925612449646
1771038054206893000,4.95989306640625,-3.4294395446777344,-8.869253158569336,2.3970141410827637
1771038054225859300,4.978859375,-2.988027334213257,-9.049347877502441,2.3133065700531006
1771038054244825600,4.99782568359375,-2.2623462677001953,-9.28016185760498,2.220534563064575
1771038054263791900,5.0167919921875,-1.6893655061721802,-9.417241096496582,2.1522114276885986
1771038054282758100,5.035758056640625,-1.3166617155075073,-9.50411605834961,2.0269596576690674
1771038054301724400,5.054724365234375,-1.0611764192581177,-9.572052955627441,1.8493566513061523
1771038054320690700,5.073690673828125,-0.7543023228645325,-9.636669158935547,1.6540921926498413
1771038054339657200,5.0926572265625,-0.212269127368927,-9.691414833068848,1.4838454723358154
1771038054358623500,5.11162353515625,0.427630215883255,-9.697224617004395,1.3969029188156128
1771038054377589800,5.13058984375,1.0253511667251587,-9.646665573120117,1.435576319694519
1771038054396556000,5.14955615234375,1.6254053115844727,-9.55943775177002,1.4647855758666992
1771038054415522300,5.168522216796875,2.827922821044922,-9.332054138183594,1.0421184301376343
1771038054434488600,5.187488525390625,3.0757060050964355,-9.296480178833008,0.5346767902374268
1771038054453454800,5.206454833984375,3.2558302879333496,-9.246922492980957,0.2537461519241333
1771038054472421000,5.225421142578125,3.5907957553863525,-9.116297721862793,0.4119586646556854
1771038054491387400,5.244387451171875,3.965491771697998,-8.917733192443848,0.9588015675544739
1771038054510353700,5.263353759765625,4.183769702911377,-8.729776382446289,1.5676270723342896
1771038054529320000,5.28231982421875,4.333624362945557,-8.578893661499023,1.9474823474884033
1771038054548286200,5.3012861328125,4.434774398803711,-8.500450134277344,2.0604591369628906
1771038054567252700,5.320252685546875,4.32996940612793,-8.571395874023438,1.9881925582885742
1771038054586219000,5.339218994140625,3.9468131065368652,-8.800779342651367,1.7718193531036377
1771038054605185300,5.358185302734375,3.63308048248291,-8.995977401733398,1.4295088052749634
1771038054624151600,5.377151611328125,3.449648857116699,-9.132996559143066,0.9266594648361206
1771038054643117800,5.396117919921875,2.8786799907684326,-9.370317459106445,0.28412988781929016
1771038054662084000,5.415083984375,2.631883382797241,-9.445439338684082,-0.16509953141212463
1771038054681050400,5.43405029296875,3.0391433238983154,-9.322990417480469,-0.12590786814689636
1771038054700016600,5.4530166015625,3.4577150344848633,-9.176850318908691,-0.0027597900480031967
1771038054718983200,5.471983154296875,3.739482879638672,-9.052931785583496,-0.4807036817073822
1771038054737949400,5.490949462890625,3.382883071899414,-9.138063430786133,-1.1055721044540405
1771038054756915700,5.509915771484375,2.1317789554595947,-9.517929077148438,-1.0173213481903076
1771038054775882000,5.528882080078125,0.5089805126190186,-9.787961959838867,-0.32731762528419495
1771038054794848300,5.54784814453125,-0.8407054543495178,-9.75861644744873,0.4826867878437042
1771038054813814500,5.566814453125,-1.239945411682129,-9.671131134033203,1.0498327016830444
1771038054832780800,5.58578076171875,-0.8218502402305603,-9.644787788391113,1.5725775957107544
1771038054861230300,5.614230224609375,-2.5431015491485596,-9.201836585998535,2.2425966262817383
1771038054880196600,5.633196533203125,-3.627943754196167,-8.780170440673828,2.432492971420288
1771038054899163000,5.652162841796875,-3.531670093536377,-8.81033706665039,2.464886426925659
1771038054918129200,5.671129150390625,-3.6366844177246094,-8.825992584228516,2.246499538421631
1771038054937095400,5.690095458984375,-3.8481173515319824,-8.781494140625,2.061004400253296
1771038054956062000,5.70906201171875,-3.7381250858306885,-8.854329109191895,1.9487589597702026
1771038054975028200,5.7280283203125,-3.0734763145446777,-9.115469932556152,1.9058696031570435
1771038054993994500,5.746994384765625,-2.3312225341796875,-9.337536811828613,1.883134365081787
1771038055012960800,5.765960693359375,-1.8087674379348755,-9.470806121826172,1.7895784378051758
1771038055031927000,5.784927001953125,-1.433248519897461,-9.56279182434082,1.633767008781433
1771038055050893300,5.803893310546875,-0.9877879619598389,-9.645589828491211,1.4687618017196655
1771038055069859600,5.822859619140625,-0.40066418051719666,-9.707592010498047,1.3313530683517456
1771038055088826000,5.841826171875,0.20343269407749176,-9.728422164916992,1.2193490266799927
1771038055107792400,5.86079248046875,0.8016955256462097,-9.70567512512207,1.1521929502487183
1771038055126758700,5.879758544921875,1.4312365055084229,-9.650219917297363,0.997603178024292
1771038055145725000,5.898724853515625,2.458782196044922,-9.479639053344727,0.5110964775085449
1771038055164691200,5.917691162109375,2.7646853923797607,-9.406864166259766,0.1944209188222885
1771038055183657500,5.936657470703125,3.0402655601501465,-9.323441505432129,-0.02441711537539959
1771038055202624000,5.9556240234375,3.507044553756714,-9.156322479248047,0.18107374012470245
1771038055221590300,5.97459033203125,3.9377310276031494,-8.952821731567383,0.7152965068817139
1771038055240556500,5.993556640625,4.220474720001221,-8.75865650177002,1.2821489572525024
1771038055259522800,6.012522705078125,4.427257061004639,-8.592024803161621,1.6573747396469116
1771038055278489000,6.031489013671875,4.541165351867676,-8.500186920166016,1.8152155876159668
1771038055297455600,6.05045556640625,4.399454116821289,-8.594330787658691,1.7183350324630737
1771038055316422000,6.069421875,3.947263717651367,-8.85811996459961,1.4571304321289062
1771038055335388200,6.08838818359375,3.643994092941284,-9.040969848632812,1.0735763311386108
1771038055354354400,6.1073544921875,3.470381498336792,-9.154350280761719,0.5698302388191223
1771038055373320700,6.12632080078125,2.8713111877441406,-9.376716613769531,-0.056001998484134674
1771038055392287000,6.145286865234375,2.891669988632202,-9.358445167541504,-0.477621853351593
1771038055411253200,6.164253173828125,3.480402708053589,-9.15007495880127,-0.5773230195045471
1771038055430219800,6.1832197265625,3.778926134109497,-9.00252914428711,-0.9190096259117126
1771038055449186000,6.20218603515625,3.499157667160034,-9.017455101013184,-1.6161025762557983
1771038055468152300,6.22115234375,2.4344263076782227,-9.33769702911377,-1.746816635131836
1771038055487118600,6.24011865234375,0.9164044857025146,-9.688081741333008,-1.2131232023239136
1771038055506084900,6.2590849609375,-0.5223953127861023,-9.78664493560791,-0.34507861733436584
1771038055525051400,6.278051513671875,-1.3436799049377441,-9.699179649353027,0.5392798185348511
1771038055544017400,6.297017333984375,-1.0613479614257812,-9.676891326904297,1.1839349269866943
1771038055562984000,6.31598388671875,-0.7191523909568787,-9.608080863952637,1.8270169496536255
1771038055581950200,6.3349501953125,-2.9013240337371826,-9.124691009521484,2.11960506439209
1771038055600916500,6.35391650390625,-3.6112220287323,-8.800214767456055,2.3844666481018066
1771038055619882800,6.3728828125,-3.458596706390381,-8.795884132385254,2.615513801574707
1771038055638849000,6.39184912109375,-3.7279531955718994,-8.750543594360352,2.3876237869262695
1771038055657815600,6.410815673828125,-4.01294469833374,-8.709240913391113,2.0532357692718506
1771038055676781800,6.42978173828125,-3.774991512298584,-8.876541137695312,1.7682865858078003
1771038055695748000,6.448748046875,-3.1061861515045166,-9.16595458984375,1.5834354162216187
1771038055714714400,6.46771435546875,-2.544804573059082,-9.35517692565918,1.4747967720031738
1771038055733680600,6.4866806640625,-2.1516318321228027,-9.472877502441406,1.3436752557754517
1771038055752647200,6.505647216796875,-1.7927513122558594,-9.569047927856445,1.178877592086792
1771038055771613400,6.524613525390625,-1.4131113290786743,-9.652691841125488,0.9995262622833252
1771038055790579700,6.543579833984375,-0.8435469269752502,-9.734236717224121,0.8387229442596436
1771038055809546000,6.5625458984375,-0.16928589344024658,-9.780197143554688,0.6996221542358398
1771038055828512300,6.58151220703125,0.5645211935043335,-9.770500183105469,0.6237211227416992
1771038055847478800,6.600478759765625,1.178978681564331,-9.716692924499512,0.6052002906799316
1771038055866445000,6.619445068359375,2.2846879959106445,-9.522216796875,0.5272436141967773
1771038055885411300,6.638411376953125,2.6080589294433594,-9.452550888061523,0.1331302970647812
1771038055904377600,6.657377685546875,2.707310676574707,-9.422390937805176,-0.24374935030937195
1771038055923344000,6.67634375,3.066638946533203,-9.31272029876709,-0.19841665029525757
1771038055942310400,6.695310302734375,3.5152909755706787,-9.153038024902344,0.1870945692062378
1771038055961276700,6.714276611328125,3.809478998184204,-9.01368522644043,0.6416605114936829
1771038055980243000,6.733242919921875,3.9424145221710205,-8.930607795715332,0.9338027834892273
1771038055999209200,6.752209228515625,3.981891632080078,-8.90793514251709,0.9816492199897766
1771038056018175500,6.771175537109375,3.8464417457580566,-8.982133865356445,0.8345915675163269
1771038056037141800,6.790141845703125,3.53534197807312,-9.127211570739746,0.6047805547714233
1771038056056108300,6.8091083984375,3.3913755416870117,-9.19680118560791,0.2963096499443054
1771038056075074600,6.828074462890625,3.3302178382873535,-9.223114967346191,-0.11910470575094223
1771038056094040800,6.847040771484375,2.760887861251831,-9.385618209838867,-0.6768037676811218
1771038056113007000,6.866007080078125,2.9962573051452637,-9.293514251708984,-0.907427966594696
1771038056131973400,6.884973388671875,3.5727171897888184,-9.095117568969727,-0.8276070356369019
1771038056150940000,6.90393994140625,3.8808109760284424,-8.933276176452637,-1.1429176330566406
1771038056169906200,6.92290625,3.581829071044922,-8.929075241088867,-1.9006584882736206
1771038056188872400,6.94187255859375,2.41072154045105,-9.248334884643555,-2.1970722675323486
1771038056207838700,6.960838623046875,0.6223964095115662,-9.648802757263184,-1.6381760835647583
1771038056226805000,6.979804931640625,-1.1279031038284302,-9.724862098693848,-0.5703353881835938
1771038056245771500,6.998771484375,-1.9535690546035767,-9.606464385986328,0.2641834318637848
1771038056264737800,7.01773779296875,-1.5185909271240234,-9.664800643920898,0.6751945614814758
1771038056283704000,7.0367041015625,-0.9876713752746582,-9.679959297180176,1.2219910621643066
1771038056302670300,7.05567041015625,-3.0851266384124756,-9.156557083129883,1.6762561798095703
1771038056321636600,7.07463671875,-3.720231294631958,-8.785888671875,2.2668118476867676
1771038056340603100,7.09360302734375,-3.4689245223999023,-8.783672332763672,2.642735719680786
1771038056359569400,7.1125693359375,-3.5790598392486572,-8.767760276794434,2.5469772815704346
1771038056378535700,7.13153564453125,-3.6523468494415283,-8.790152549743652,2.3588058948516846
1771038056397502000,7.150501953125,-3.4694664478302,-8.899748802185059,2.219832181930542
1771038056416468200,7.16946826171875,-2.926417350769043,-9.089271545410156,2.234189510345459
1771038056435434800,7.188434814453125,-2.3151464462280273,-9.251899719238281,2.2831645011901855
1771038056454401000,7.207401123046875,-1.7829530239105225,-9.369976043701172,2.2792575359344482
1771038056473367300,7.2263671875,-1.3181225061416626,-9.463905334472656,2.206223726272583
1771038056492333800,7.245333740234375,-0.8861446976661682,-9.543500900268555,2.0752663612365723
1771038056511299800,7.2642998046875,-0.32601359486579895,-9.611595153808594,1.9186820983886719
1771038056530266400,7.283266357421875,0.3367459177970886,-9.641243934631348,1.76164972782135
1771038056549232600,7.302232666015625,1.0122300386428833,-9.612966537475586,1.6542868614196777
1771038056568199000,7.321198974609375,1.5267359018325806,-9.562509536743164,1.5485068559646606
1771038056587165200,7.340165283203125,2.056565999984741,-9.528743743896484,1.069572925567627
1771038056606131500,7.35913134765625,2.2639029026031494,-9.528823852539062,0.4966247081756592
1771038056625098000,7.378097900390625,2.4492969512939453,-9.494351387023926,0.16920168697834015
1771038056644064300,7.397064208984375,2.8638529777526855,-9.372977256774902,0.34061291813850403
1771038056663030500,7.416030517578125,3.452198028564453,-9.13443660736084,0.9026501774787903
1771038056681996800,7.434996826171875,3.946958303451538,-8.846179008483887,1.5287344455718994
1771038056700963000,7.453963134765625,4.2398362159729,-8.607966423034668,2.024125814437866
1771038056719929600,7.4729296875,4.430091857910156,-8.46326732635498,2.2176096439361572
1771038056738896000,7.491895751953125,4.4701619148254395,-8.471630096435547,2.102267026901245
1771038056757862100,7.510862060546875,4.182982444763184,-8.69265079498291,1.763763189315796
1771038056776828400,7.529828369140625,3.73492169380188,-8.964980125427246,1.3601056337356567
1771038056795794700,7.548794677734375,3.4414961338043213,-9.135990142822266,0.9274599552154541
1771038056814761200,7.56776123046875,2.9755210876464844,-9.336893081665039,0.37294745445251465
1771038056833727500,7.5867275390625,2.6465201377868652,-9.440196990966797,-0.22139987349510193
1771038056852693800,7.60569384765625,3.2044312953948975,-9.260557174682617,-0.37960800528526306
1771038056871660000,7.624659912109375,3.6381990909576416,-9.094480514526367,-0.4736170768737793
1771038056890626300,7.643626220703125,3.5279202461242676,-9.076963424682617,-1.1545157432556152
1771038056909592800,7.6625927734375,2.6804373264312744,-9.284008026123047,-1.6711770296096802
1771038056928559000,7.68155908203125,1.197901964187622,-9.625495910644531,-1.4440420866012573
1771038056947525400,7.700525390625,-0.5113615989685059,-9.7774076461792,-0.5578472018241882
1771038056966491600,7.71949169921875,-1.836763620376587,-9.618062973022461,0.5381127595901489
1771038056985458200,7.738458251953125,-2.053677797317505,-9.513998031616211,1.198599934577942
1771038057004424400,7.757424560546875,-1.3262478113174438,-9.539213180541992,1.8479347229003906
1771038057023390700,7.776390625,-1.9700473546981812,-9.223719596862793,2.68557071685791
1771038057042357000,7.79535693359375,-3.614684820175171,-8.697826385498047,2.7298834323883057
1771038057061323300,7.8143232421875,-3.6504275798797607,-8.5879545211792,3.0152602195739746
1771038057080289500,7.83328955078125,-3.8140316009521484,-8.570357322692871,2.8587629795074463
1771038057099256000,7.852256103515625,-4.119944095611572,-8.53459644317627,2.521329641342163
1771038057118222300,7.871222412109375,-4.178950786590576,-8.577839851379395,2.2643818855285645
1771038057137188600,7.890188720703125,-3.789384365081787,-8.797191619873047,2.102466106414795
1771038057156155100,7.909155029296875,-3.1105992794036865,-9.08810043334961,1.9750895500183105
1771038057175121400,7.928121337890625,-2.5364456176757812,-9.298017501831055,1.8121020793914795
1771038057194087700,7.947087646484375,-2.110140562057495,-9.441529273986816,1.6047495603561401
1771038057213054000,7.966053955078125,-1.7456331253051758,-9.549363136291504,1.390256404876709
1771038057232020200,7.985020263671875,-1.275665044784546,-9.648433685302734,1.204483151435852
1771038057250986800,8.00398681640625,-0.6544872522354126,-9.729575157165527,1.037987470626831
1771038057269953000,8.022953125,0.044792454689741135,-9.767733573913574,0.8716486692428589
1771038057288919300,8.041919189453125,0.7428786158561707,-9.751502990722656,0.725744903087616
1771038057307885600,8.060885498046876,1.5388578176498413,-9.662848472595215,0.6570175886154175
1771038057326851800,8.079851806640624,2.8486123085021973,-9.362637519836426,0.6299380660057068
1771038057345818400,8.098818359375,3.1194467544555664,-9.288036346435547,0.4145342707633972
1771038057364784600,8.11778466796875,3.357146739959717,-9.210168838500977,0.2697097063064575
1771038057383751000,8.1367509765625,3.9420204162597656,-8.954744338989258,0.6658942103385925
1771038057402717200,8.15571728515625,4.398153781890869,-8.677377700805664,1.236833930015564
1771038057421683500,8.174683349609374,4.599363803863525,-8.50352668762207,1.6450722217559814
1771038057440650000,8.19364990234375,4.6785454750061035,-8.42049503326416,1.8376286029815674
1771038057459616300,8.2126162109375,4.634766101837158,-8.446209907531738,1.8305374383926392
1771038057478582500,8.23158251953125,4.407403469085693,-8.61868953704834,1.5695135593414307
1771038057497548800,8.250548828125,4.061404228210449,-8.836490631103516,1.2616758346557617
1771038057516515000,8.26951513671875,3.8874080181121826,-8.951654434204102,0.9624594449996948
1771038057535481600,8.288481689453125,3.494858503341675,-9.147908210754395,0.5216606855392456
1771038057554448000,8.30744775390625,2.7335309982299805,-9.41797161102295,-0.0011471033794805408
1771038057573414100,8.3264140625,3.041128635406494,-9.322992324829102,-0.0610935278236866
1771038057592380400,8.34538037109375,3.4336118698120117,-9.184806823730469,0.1414826512336731
1771038057611346700,8.3643466796875,3.5568952560424805,-9.138607025146484,-0.06893444061279297
1771038057630313000,8.38331298828125,3.321533441543579,-9.201220512390137,-0.689457356929779
1771038057649279500,8.402279541015625,2.487873077392578,-9.45298957824707,-0.7885901927947998
1771038057668245800,8.421245849609376,1.2204387187957764,-9.727384567260742,-0.2426912635564804
1771038057687212000,8.4402119140625,-0.1664968878030777,-9.790472030639648,0.5378953218460083
1771038057706178300,8.45917822265625,-1.115128755569458,-9.680124282836914,1.1054679155349731
1771038057725144600,8.47814453125,-1.2121379375457764,-9.604071617126465,1.569366455078125
1771038057744110800,8.49711083984375,-1.1052007675170898,-9.4967679977417,2.1818172931671143
1771038057763077400,8.516077392578126,-3.219148635864258,-8.922914505004883,2.4877843856811523
1771038057782043600,8.535043701171874,-3.881012201309204,-8.545845031738281,2.8419482707977295
1771038057801010000,8.554010009765625,-3.7031757831573486,-8.504816055297852,3.1819796562194824
1771038057819976200,8.57297607421875,-3.8214521408081055,-8.475922584533691,3.118594169616699
1771038057838942500,8.5919423828125,-3.8602356910705566,-8.524859428405762,2.931851387023926
1771038057857909000,8.610908935546876,-3.4774725437164307,-8.743422508239746,2.7622692584991455
1771038057876875300,8.629875244140624,-2.8124072551727295,-9.009516716003418,2.6625888347625732
1771038057895841500,8.648841552734375,-2.3122663497924805,-9.175355911254883,2.576171398162842
1771038057914807800,8.667807861328125,-1.9893947839736938,-9.284666061401367,2.4510581493377686
1771038057933774000,8.686774169921875,-1.6183192729949951,-9.394274711608887,2.3019649982452393
1771038057952740600,8.70574072265625,-1.0247853994369507,-9.515575408935547,2.1387009620666504
1771038057971707000,8.724706787109374,-0.31062009930610657,-9.605228424072266,1.9528160095214844
1771038057990673200,8.743673095703125,0.41145241260528564,-9.633907318115234,1.7857540845870972
1771038058009639400,8.762639404296875,1.124430537223816,-9.594317436218262,1.6897073984146118
1771038058028605700,8.781605712890626,2.084547758102417,-9.492581367492676,1.3099435567855835
1771038058047572000,8.800572021484374,2.278550624847412,-9.515637397766113,0.6566987037658691
1771038058066538200,8.819538330078124,2.4448184967041016,-9.4967679977417,0.06813088804483414
1771038058085504800,8.8385048828125,2.8937783241271973,-9.369928359985352,-0.02965683862566948
1771038058104471000,8.857470947265625,3.5740861892700195,-9.121700286865234,0.4368914067745209
1771038058123437300,8.876437255859376,4.162558078765869,-8.812804222106934,1.0853468179702759
1771038058142403600,8.895403564453124,4.527534008026123,-8.535502433776855,1.6783984899520874
1771038058161369900,8.914369873046875,4.744847774505615,-8.31875991821289,2.110692262649536
1771038058180336000,8.933336181640625,4.835683822631836,-8.23648452758789,2.2241594791412354
1771038058199302700,8.952302734375,4.550631999969482,-8.480831146240234,1.880856990814209
1771038058218269000,8.97126904296875,4.068831443786621,-8.829679489135742,1.285206913948059
1771038058237235200,8.990235107421874,3.759486675262451,-9.028688430786133,0.7207119464874268
1771038058256201500,9.009201416015625,3.231762647628784,-9.258651733398438,-0.05885271728038788
1771038058275167700,9.028167724609375,2.7237255573272705,-9.385350227355957,-0.8166390657424927
1771038058294134000,9.047134033203125,3.268388032913208,-9.201053619384766,-0.9102898240089417
1771038058313100500,9.0661005859375,3.6422829627990723,-9.06777286529541,-0.8244100213050842
1771038058332066800,9.08506689453125,3.5267651081085205,-9.076349258422852,-1.1628363132476807
1771038058351033000,9.104033203125,2.920884370803833,-9.251751899719238,-1.4296557903289795
1771038058369999400,9.122999267578125,1.7345012426376343,-9.59318733215332,-1.0642707347869873
1771038058388965600,9.141965576171875,0.32779768109321594,-9.799948692321777,-0.15477696061134338
1771038058407932000,9.160931884765626,-0.8708226680755615,-9.734509468078613,0.8070849180221558
1771038058426898200,9.179898193359374,-1.4818378686904907,-9.595185279846191,1.3809256553649902
1771038058445864400,9.198864501953125,-1.45706045627594,-9.51689338684082,1.8644310235977173
1771038058464831000,9.2178310546875,-2.455387830734253,-9.163389205932617,2.4847028255462646
1771038058483797200,9.23679736328125,-3.43278169631958,-8.775985717773438,2.7144904136657715
1771038058502763500,9.255763427734376,-3.4375510215759277,-8.694008827209473,2.961052417755127
1771038058521729800,9.274729736328124,-3.778235673904419,-8.555092811584473,2.9505436420440674
1771038058540696000,9.293696044921875,-4.125225067138672,-8.390789985656738,2.9576265811920166
1771038058559662300,9.312662353515625,-3.98510479927063,-8.434453010559082,3.024789333343506
1771038058578628600,9.331628662109376,-3.511018753051758,-8.666833877563477,2.9545114040374756
1771038058597595100,9.35059521484375,-3.005913257598877,-8.919000625610352,2.7543225288391113
1771038058616561400,9.3695615234375,-2.548288345336914,-9.120368003845215,2.5486247539520264
1771038058635527700,9.388527587890625,-2.1950414180755615,-9.268220901489258,2.3350038528442383
1771038058654494000,9.407493896484375,-1.8649076223373413,-9.389518737792969,2.1282460689544678
1771038058673460200,9.426460205078126,-1.3571751117706299,-9.513781547546387,1.9535635709762573
1771038058692426500,9.445426513671874,-0.6411607265472412,-9.623551368713379,1.7738572359085083
1771038058711392800,9.464392822265625,0.1400330513715744,-9.674223899841309,1.600050687789917
1771038058730359000,9.483359130859375,0.8859266042709351,-9.652938842773438,1.4853577613830566
1771038058749325300,9.5023251953125,1.8238335847854614,-9.548090934753418,1.2953673601150513
1771038058768291800,9.521291748046876,2.4354658126831055,-9.460013389587402,0.8643177151679993
1771038058787258000,9.540258056640624,2.6044440269470215,-9.447029113769531,0.37537896633148193
1771038058806224400,9.559224365234375,3.0376789569854736,-9.319831848144531,0.28920385241508484
1771038058825190700,9.578190673828125,3.7821085453033447,-9.009703636169434,0.8314380645751953
1771038058844157000,9.597156982421875,4.340562343597412,-8.649227142333984,1.5876928567886353
1771038058863123200,9.616123291015626,4.692554473876953,-8.340584754943848,2.141251564025879
1771038058882089500,9.63508935546875,4.928057670593262,-8.10814094543457,2.478445291519165
1771038058901055700,9.6540556640625,4.948150157928467,-8.063250541687012,2.5826661586761475
1771038058920022000,9.67302197265625,4.720599174499512,-8.288722038269043,2.2767083644866943
1771038058938988300,9.69198828125,4.340219497680664,-8.634478569030762,1.6669317483901978
1771038058957954800,9.710954833984376,4.093212127685547,-8.8464994430542,1.0749276876449585
1771038058976921000,9.729921142578124,3.6134796142578125,-9.106980323791504,0.41960054636001587
1771038058995887400,9.748887451171875,2.709014654159546,-9.422737121582031,-0.20888283848762512
1771038059014853600,9.767853515625,3.086728811264038,-9.306168556213379,-0.194240540266037
1771038059033820000,9.78681982421875,3.6398937702178955,-9.10566520690918,0.09180958569049835
1771038059052786200,9.8057861328125,3.87361741065979,-9.0088472366333,-0.07838858664035797
1771038059071752400,9.82475244140625,3.632448196411133,-9.072305679321289,-0.8179159760475159
1771038059090718700,9.84371875,2.6633307933807373,-9.387088775634766,-0.979606032371521
1771038059109685000,9.86268505859375,1.2247132062911987,-9.723782539367676,-0.34426426887512207
1771038059128651300,9.8816513671875,-0.3235069215297699,-9.785250663757324,0.5608969330787659
1771038059147617500,9.900617431640624,-1.347700834274292,-9.641258239746094,1.1833157539367676
1771038059166583800,9.919583740234375,-1.3329311609268188,-9.576772689819336,1.6367990970611572
1771038059185550300,9.93855029296875,-0.994605302810669,-9.4548921585083,2.405441999435425
1771038059204516600,9.9575166015625,-2.9958009719848633,-8.898548126220703,2.830442428588867
1771038059223483000,9.97648291015625,-3.5062437057495117,-8.629152297973633,3.0682859420776367
1771038059242449200,9.99544921875,-3.4921345710754395,-8.599041938781738,3.1673097610473633
1771038059261415400,10.01441552734375,-3.875978469848633,-8.486266136169434,3.0216681957244873
1771038059280381700,10.033381591796875,-4.134471416473389,-8.414173126220703,2.877187967300415
1771038059299348000,10.052347900390625,-3.86277174949646,-8.584120750427246,2.7499542236328125
1771038059318314200,10.071314208984376,-3.2494056224823,-8.883550643920898,2.5873310565948486
1771038059337280500,10.090280517578124,-2.74410080909729,-9.091999053955078,2.444556474685669
1771038059356246800,10.109246826171875,-2.419372320175171,-9.221458435058594,2.298203706741333
1771038059375213000,10.128213134765625,-2.1478066444396973,-9.325434684753418,2.143263101577759
1771038059394179300,10.147179443359375,-1.7465107440948486,-9.446616172790527,1.970158576965332
1771038059413145600,10.1661455078125,-1.1817383766174316,-9.575994491577148,1.7533445358276367
1771038059432111900,10.18511181640625,-0.5068284869194031,-9.677383422851562,1.5039219856262207
1771038059451078100,10.204078125,0.2518611550331116,-9.719690322875977,1.2785035371780396
1771038059470044400,10.22304443359375,0.7962703108787537,-9.703853607177734,1.1711409091949463
1771038059489010700,10.2420107421875,1.7424824237823486,-9.59610366821289,1.024181842803955
1771038059507977000,10.26097705078125,2.064960479736328,-9.573657035827637,0.5014185309410095
1771038059526943200,10.279943115234374,2.3531856536865234,-9.517526626586914,0.22271877527236938
1771038059545909500,10.298909423828125,3.038583278656006,-9.309447288513184,0.5211503505706787
1771038059564876000,10.3178759765625,3.7484679222106934,-8.99028205871582,1.1376320123672485
1771038059583842000,10.336842041015625,4.201318264007568,-8.703961372375488,1.66143000125885
1771038059602808600,10.35580859375,4.519154071807861,-8.457066535949707,2.055637836456299
1771038059621774600,10.374774658203124,4.7515764236450195,-8.284509658813477,2.227065324783325
1771038059640740900,10.393740966796875,4.608551502227783,-8.440196990966797,1.9221649169921875
1771038059659707100,10.41270703125,4.145843505859375,-8.79011344909668,1.3100626468658447
1771038059678673700,10.431673583984375,3.889680862426758,-8.972860336303711,0.727014422416687
1771038059697640000,10.450639892578126,3.395698308944702,-9.199963569641113,-0.017360083758831024
1771038059716606200,10.469606201171874,2.604931592941284,-9.420967102050781,-0.7937897443771362
1771038059735572500,10.488572509765625,3.031690835952759,-9.29054069519043,-0.8155298829078674
1771038059754538800,10.507538818359375,3.6088054180145264,-9.108914375305176,-0.4178520143032074
1771038059773505000,10.526505126953126,3.7744288444519043,-9.040223121643066,-0.44547316431999207
1771038059792471300,10.54547119140625,3.430385112762451,-9.130693435668945,-1.0165073871612549
1771038059811437600,10.5644375,2.239971160888672,-9.495124816894531,-0.9977597594261169
1771038059830403800,10.58340380859375,0.5866214632987976,-9.785636901855469,-0.2599639296531677
1771038059849370000,10.6023701171875,-0.9669405817985535,-9.73907470703125,0.621144711971283
1771038059868336400,10.62133642578125,-1.7255018949508667,-9.596614837646484,1.0478544235229492
1771038059887302400,10.640302490234374,-1.418859839439392,-9.606586456298828,1.3677407503128052
1771038059906269000,10.65926904296875,-1.3953444957733154,-9.472405433654785,2.12060284614563
1771038059925235200,10.678235107421875,-3.403960943222046,-8.86458683013916,2.450009346008301
1771038059944201500,10.697201416015625,-3.5738158226013184,-8.669902801513672,2.8689749240875244
1771038059963167700,10.716167724609376,-3.52475905418396,-8.644804954528809,3.0023014545440674
1771038059982133800,10.7351337890625,-3.7650563716888428,-8.573025703430176,2.915128707885742
1771038060001100000,10.75410009765625,-3.8046295642852783,-8.604300498962402,2.7678844928741455
1771038060020066300,10.77306640625,-3.492936372756958,-8.796873092651367,2.5660881996154785
1771038060039032600,10.792032470703125,-3.0022246837615967,-9.027520179748535,2.3792672157287598
1771038060057998800,10.810998779296876,-2.577411413192749,-9.194368362426758,2.2340385913848877
1771038060076965000,10.829965087890624,-2.256133794784546,-9.314153671264648,2.080091714859009
1771038060095931400,10.848931396484375,-1.9603222608566284,-9.416753768920898,1.9110907316207886
1771038060114897700,10.867897705078125,-1.5625479221343994,-9.523391723632812,1.7417960166931152
1771038060133864000,10.886864013671875,-0.9623935222625732,-9.633867263793945,1.5597394704818726
1771038060152830200,10.905830322265626,-0.26722773909568787,-9.711261749267578,1.3380403518676758
1771038060171796500,10.92479638671875,0.511385977268219,-9.72586441040039,1.1473668813705444
1771038060190762800,10.9437626953125,1.1039847135543823,-9.693384170532227,0.9949424862861633
1771038060209729000,10.96272900390625,1.870656967163086,-9.606659889221191,0.6189699769020081
1771038060228695300,10.9816953125,1.9985634088516235,-9.600838661193848,0.0033529296051710844
1771038060247661600,11.00066162109375,2.319047212600708,-9.52475357055664,-0.267384797334671
1771038060266627800,11.0196279296875,3.0773539543151855,-9.310821533203125,0.09428596496582031
1771038060285594000,11.038593994140625,3.8339285850524902,-8.985664367675781,0.8539432287216187
1771038060304560400,11.057560302734375,4.338754177093506,-8.646491050720215,1.607420563697815
1771038060323526700,11.076526611328125,4.716468334197998,-8.334217071533203,2.1133227348327637
1771038060342493000,11.095492919921876,4.96450662612915,-8.16523265838623,2.2029590606689453
1771038060361459200,11.114459228515624,4.734241008758545,-8.39910888671875,1.792293667793274
1771038060380425200,11.13342529296875,4.3451247215271,-8.720123291015625,1.1179158687591553
1771038060399391500,11.1523916015625,4.1553850173950195,-8.87448501586914,0.3829909861087799
1771038060418357800,11.171357666015625,3.487379550933838,-9.152972221374512,-0.4813344180583954
1771038060437324000,11.190323974609376,2.728548765182495,-9.361478805541992,-1.0431264638900757
1771038060456290300,11.209290283203124,3.073633909225464,-9.255908966064453,-1.0253381729125977
1771038060475256600,11.228256591796875,3.605952739715576,-9.084053039550781,-0.8046554923057556
1771038060494222800,11.247222900390625,3.7910687923431396,-9.002012252807617,-0.8728978633880615
1771038060513189000,11.266189208984375,3.523092269897461,-9.024465560913086,-1.5222443342208862
1771038060532155400,11.2851552734375,2.468498468399048,-9.283196449279785,-1.9746297597885132
1771038060551121700,11.30412158203125,0.5899545550346375,-9.664793968200684,-1.5537413358688354
1771038060570088000,11.323087890625,-1.2680338621139526,-9.704167366027832,-0.6257978081703186
1771038060589054200,11.34205419921875,-2.0559470653533936,-9.588690757751465,-0.02150583267211914
1771038060608020200,11.361020263671875,-1.569407343864441,-9.670879364013672,0.42596229910850525
1771038060626986500,11.379986572265626,-0.9773852825164795,-9.68928337097168,1.1545156240463257
1771038060645952800,11.398952880859374,-3.0233442783355713,-9.18021297454834,1.6593526601791382
1771038060664919000,11.4179189453125,-4.0247039794921875,-8.664237976074219,2.214303493499756
1771038060683885300,11.43688525390625,-3.763545274734497,-8.681859970092773,2.575153112411499
1771038060702851600,11.4558515625,-3.8798093795776367,-8.703847885131836,2.315275192260742
1771038060721817900,11.47481787109375,-3.96641206741333,-8.755167961120605,1.9455031156539917
1771038060740784000,11.4937841796875,-3.807161569595337,-8.899357795715332,1.5739550590515137
1771038060759750400,11.51275048828125,-3.2505431175231934,-9.158679962158203,1.3126085996627808
1771038060778716400,11.53171630859375,-2.7146615982055664,-9.35826301574707,1.1063039302825928
1771038060797682700,11.5506826171875,-2.298929214477539,-9.491080284118652,0.8970512747764587
1771038060816649000,11.56964892578125,-1.9220585823059082,-9.59189224243164,0.6867884397506714
1771038060835615200,11.588615234375,-1.467933177947998,-9.684675216674805,0.4718494117259979
1771038060854581500,11.60758154296875,-0.770407497882843,-9.772945404052734,0.2576867938041687
1771038060873547800,11.6265478515625,0.03703487664461136,-9.80645751953125,0.0490218810737133
1771038060892514000,11.64551416015625,0.838904857635498,-9.77002239227295,-0.11520759761333466
1771038060911480000,11.66447998046875,1.5841797590255737,-9.674257278442383,-0.2636251747608185
1771038060930446300,11.6834462890625,2.5001091957092285,-9.460376739501953,-0.6489343643188477
1771038060949412600,11.70241259765625,2.652822732925415,-9.371343612670898,-1.1449159383773804
1771038060968379000,11.72137890625,3.0555307865142822,-9.24435806274414,-1.173011064529419
1771038060987345200,11.74034521484375,3.8081624507904053,-9.018697738647461,-0.5756523013114929
1771038061006311400,11.7593115234375,4.447309970855713,-8.736494064331055,0.25592005252838135
1771038061025277700,11.778277587890624,4.844041347503662,-8.469212532043457,0.9889857172966003
1771038061044243700,11.79724365234375,5.13198709487915,-8.23599910736084,1.4147088527679443
1771038061063210000,11.8162099609375,5.174981117248535,-8.204328536987305,1.4418593645095825
1771038061082176300,11.83517626953125,4.83420467376709,-8.472898483276367,1.0054057836532593
1771038061101142500,11.854142578125,4.42722225189209,-8.744366645812988,0.325803279876709
1771038061120108800,11.87310888671875,4.105373859405518,-8.89833927154541,-0.3685751259326935
1771038061139075000,11.892074951171875,3.4031853675842285,-9.130516052246094,-1.1056188344955444
1771038061158041000,11.911041015625,2.9469141960144043,-9.2302885055542,-1.5125656127929688
1771038061177007400,11.93000732421875,3.6707704067230225,-9.011432647705078,-1.220621109008789
1771038061195973600,11.9489736328125,4.205801010131836,-8.806052207946777,-0.9669957160949707
1771038061214940000,11.96793994140625,4.044389724731445,-8.784781455993652,-1.6250890493392944
1771038061233906200,11.98690625,2.871474504470825,-9.125198364257812,-2.1577250957489014
1771038061252872200,12.0058720703125,0.9886276125907898,-9.568988800048828,-1.9045889377593994
1771038061271838500,12.02483837890625,-0.896499514579773,-9.699592590332031,-1.1333907842636108
1771038061290804700,12.0438046875,-2.125070333480835,-9.568421363830566,-0.31587234139442444
1771038061309771000,12.06277099609375,-1.995407223701477,-9.599726676940918,0.18434852361679077
1771038061328737300,12.0817373046875,-1.2296220064163208,-9.703872680664062,0.7023326754570007
1771038061347703300,12.100703369140625,-2.0163211822509766,-9.520421028137207,1.2109578847885132
1771038061366669600,12.119669677734375,-4.017822265625,-8.85968017578125,1.238368272781372
1771038061385635800,12.1386357421875,-4.112463474273682,-8.722661972045898,1.7813479900360107
1771038061404602000,12.15760205078125,-3.931504249572754,-8.7761869430542,1.921511173248291
1771038061423568400,12.176568359375,-3.8275673389434814,-8.852482795715332,1.7758597135543823
1771038061442534400,12.195534423828125,-3.642482042312622,-8.986255645751953,1.4662604331970215
1771038061461500700,12.214500732421875,-3.2723138332366943,-9.189587593078613,1.006886601448059
1771038061480467000,12.233467041015626,-2.6644246578216553,-9.421355247497559,0.5561339855194092
1771038061499433200,12.25243310546875,-2.1585605144500732,-9.564799308776855,0.16005338728427887
1771038061518399500,12.2713994140625,-1.7551112174987793,-9.646153450012207,-0.20420487225055695
1771038061537365500,12.290365478515625,-1.4229921102523804,-9.688490867614746,-0.5278384685516357
1771038061556331800,12.309331787109375,-0.9939236640930176,-9.722184181213379,-0.8134188055992126
1771038061575298000,12.328298095703126,-0.2788578271865845,-9.746481895446777,-1.0482003688812256
1771038061594264300,12.347264404296874,0.6850179433822632,-9.714651107788086,-1.151820182800293
1771038061613230300,12.366230224609374,1.4947850704193115,-9.624955177307129,-1.1385318040847778
1771038061632196600,12.385196533203125,2.792238473892212,-9.269758224487305,-1.5637646913528442
1771038061651163000,12.404162841796875,3.001600980758667,-9.084831237792969,-2.1509554386138916
1771038061670129200,12.423129150390626,3.161205768585205,-8.985111236572266,-2.333440065383911
1771038061689095200,12.44209521484375,3.8776750564575195,-8.811511993408203,-1.8684966564178467
1771038061708061400,12.4610615234375,4.529239177703857,-8.635493278503418,-1.0414575338363647
1771038061727027700,12.48002783203125,4.866343975067139,-8.511703491210938,-0.19998149573802948
1771038061745994000,12.498993896484375,5.0663161277771,-8.38329792022705,0.4723960757255554
1771038061764960000,12.5179599609375,5.177641868591309,-8.289499282836914,0.8041226267814636
1771038061783926300,12.53692626953125,5.017213821411133,-8.396900177001953,0.7000178694725037
1771038061802892500,12.555892578125,4.675241470336914,-8.616477966308594,0.26230698823928833
1771038061821858800,12.57485888671875,4.35172176361084,-8.783058166503906,-0.30130845308303833
1771038061840824800,12.593824951171875,3.6517281532287598,-9.044492721557617,-1.0160843133926392
1771038061859791000,12.612791015625,2.8175997734069824,-9.270967483520508,-1.5101909637451172
1771038061878757400,12.63175732421875,3.100471019744873,-9.181800842285156,-1.5006670951843262
1771038061897723400,12.650723388671874,3.6937410831451416,-9.00631046295166,-1.1887139081954956
1771038061916689700,12.669689697265625,3.9852631092071533,-8.880387306213379,-1.1944825649261475
1771038061935656000,12.688656005859375,3.633857011795044,-8.893159866333008,-1.9690566062927246
1771038061954622200,12.707622314453126,2.3281731605529785,-9.203240394592285,-2.4597508907318115
1771038061973588200,12.726588134765626,0.3332210183143616,-9.593074798583984,-2.008047103881836
1771038061992554500,12.745554443359374,-1.5092377662658691,-9.629396438598633,-1.0804160833358765
1771038062011520800,12.764520751953125,-2.2500226497650146,-9.533266067504883,-0.47393307089805603
1771038062030486800,12.78348681640625,-1.7031433582305908,-9.656411170959473,-0.15300945937633514
1771038062049453000,12.802453125,-1.0628727674484253,-9.745559692382812,0.2544507086277008
1771038062068419300,12.82141943359375,-2.583380699157715,-9.437613487243652,0.654198944568634
1771038062087385600,12.840385498046874,-4.3841376304626465,-8.704092025756836,1.0901802778244019
1771038062106351600,12.8593515625,-4.226083278656006,-8.703681945800781,1.5989153385162354
1771038062125318000,12.87831787109375,-3.955605983734131,-8.814606666564941,1.6811537742614746
1771038062144284200,12.8972841796875,-3.8178086280822754,-8.897634506225586,1.5578231811523438
1771038062163250200,12.916250244140626,-3.6476688385009766,-9.006495475769043,1.3220967054367065
1771038062182216400,12.935216552734374,-3.1224889755249023,-9.231489181518555,1.095467209815979
1771038062201182700,12.9541826171875,-2.473982810974121,-9.443220138549805,0.9356251358985901
1771038062220148700,12.973148681640625,-1.984555959701538,-9.572444915771484,0.7747409343719482
1771038062239115000,12.992114990234375,-1.589277982711792,-9.658860206604004,0.5924511551856995
1771038062258081300,13.011081298828126,-1.0383989810943604,-9.743087768554688,0.40541428327560425
1771038062277047300,13.03004736328125,-0.23577527701854706,-9.801117897033691,0.22995105385780334
1771038062296013600,13.049013671875,0.5778578519821167,-9.788872718811035,0.1202227994799614
1771038062314979800,13.067979736328125,1.4845466613769531,-9.693350791931152,0.07397102564573288
1771038062333945900,13.08694580078125,2.4276065826416016,-9.489474296569824,-0.476444274187088
1771038062352912100,13.105912109375,2.4304778575897217,-9.430734634399414,-1.1508327722549438
1771038062371878400,13.12487841796875,2.741027593612671,-9.303317070007324,-1.4510149955749512
1771038062390844400,13.143844482421875,3.43839693069458,-9.108057975769043,-1.1794400215148926
1771038062409810700,13.162810791015625,4.158908843994141,-8.873516082763672,-0.3668519854545593
1771038062428777000,13.18177685546875,4.6079511642456055,-8.640776634216309,0.5235954523086548
1771038062447743000,13.200742919921876,4.96084451675415,-8.368746757507324,1.2347036600112915
1771038062466709200,13.219709228515624,5.2871904373168945,-8.109402656555176,1.566396713256836
1771038062485675500,13.238675537109375,5.308949947357178,-8.120445251464844,1.4296200275421143
1771038062504641500,13.2576416015625,4.809747219085693,-8.50179672241211,0.8695871233940125
1771038062523607800,13.27660791015625,4.346949100494385,-8.788236618041992,0.2032940536737442
1771038062542574000,13.295573974609376,3.752692461013794,-9.036752700805664,-0.6517491936683655
1771038062561540000,13.3145400390625,2.70715069770813,-9.293313026428223,-1.5735491514205933
1771038062580506400,13.33350634765625,2.5925307273864746,-9.248963356018066,-1.9763226509094238
1771038062599472600,13.35247265625,3.2336373329162598,-9.070319175720215,-1.855609655380249
1771038062618438700,13.371438720703125,3.6137521266937256,-8.953548431396484,-1.7161438465118408
1771038062637405000,13.390405029296875,3.3862085342407227,-8.929195404052734,-2.2301201820373535
1771038062656371000,13.409370849609376,2.2426657676696777,-9.151217460632324,-2.7195677757263184
1771038062675337200,13.428337158203124,0.40040332078933716,-9.532987594604492,-2.265443801879883
1771038062694303500,13.447303466796875,-1.2884135246276855,-9.642433166503906,-1.2384891510009766
1771038062713269500,13.46626953125,-2.1012864112854004,-9.567353248596191,-0.46982261538505554
1771038062732235800,13.48523583984375,-1.75990629196167,-9.647370338439941,0.03695825859904289
1771038062751202000,13.5042021484375,-1.160308599472046,-9.713140487670898,0.6920828819274902
1771038062770168000,13.52316796875,-2.646857738494873,-9.35900592803955,1.2544101476669312
1771038062789134300,13.54213427734375,-4.249628067016602,-8.665423393249512,1.738242268562317
1771038062808100400,13.561100341796875,-3.997889757156372,-8.656822204589844,2.2905657291412354
1771038062827066600,13.580066650390625,-3.803278923034668,-8.743852615356445,2.2913942337036133
1771038062846033000,13.599032958984376,-3.7219622135162354,-8.826674461364746,2.0993359088897705
1771038062864999000,13.6179990234375,-3.4363157749176025,-8.986802101135254,1.8972387313842773
1771038062883965200,13.636965087890625,-2.8561856746673584,-9.210295677185059,1.7841055393218994
1771038062902931200,13.65593115234375,-2.315748691558838,-9.379792213439941,1.681429386138916
1771038062921897500,13.6748974609375,-1.8534338474273682,-9.508591651916504,1.5237555503845215
1771038062940863500,13.693863525390626,-1.4525799751281738,-9.609458923339844,1.310990571975708
1771038062959829800,13.712829833984374,-0.8666104674339294,-9.71066665649414,1.0593945980072021
1771038062978796000,13.731796142578125,-0.03780054301023483,-9.777139663696289,0.7592853903770447
1771038062997762000,13.750761962890625,0.7796524167060852,-9.764294624328613,0.4701898396015167
1771038063016728300,13.769728271484375,1.501062035560608,-9.689271926879883,0.18768174946308136
1771038063035694300,13.7886943359375,1.9308016300201416,-9.60580062866211,-0.4134964644908905
1771038063054660600,13.80766064453125,2.084494113922119,-9.508524894714355,-1.188794732093811
1771038063073627000,13.826626953125,2.298896312713623,-9.400670051574707,-1.5852018594741821
1771038063092593000,13.845593017578125,2.846186637878418,-9.282024383544922,-1.38334059715271
1771038063121042200,13.874042236328124,4.016393661499023,-8.945261001586914,-0.14587774872779846
1771038063140008400,13.893008544921875,4.539504051208496,-8.658699989318848,0.7682562470436096
1771038063158974500,13.911974365234375,4.942748546600342,-8.347820281982422,1.4330047369003296
1771038063177940700,13.930940673828125,5.2320237159729,-8.136600494384766,1.6099820137023926
1771038063196906800,13.94990673828125,5.124361991882324,-8.264909744262695,1.265927791595459
1771038063215873000,13.968873046875,4.616629600524902,-8.628861427307129,0.6323534250259399
1771038063234839000,13.987839111328125,4.208453178405762,-8.857601165771484,-0.04704142361879349
1771038063253805300,14.006805419921875,3.822221517562866,-8.988654136657715,-0.8746947646141052
1771038063272771600,14.025771484375,3.010148525238037,-9.184688568115234,-1.6585801839828491
1771038063291737600,14.044737548828126,2.900674819946289,-9.15616226196289,-1.9801982641220093
1771038063310703900,14.063703857421874,3.2454118728637695,-9.083771705627441,-1.7671401500701904
1771038063329670000,14.082669921875,3.4265530109405518,-9.064922332763672,-1.5020991563796997
1771038063348636200,14.10163623046875,3.1426446437835693,-9.108622550964355,-1.8240563869476318
1771038063367602200,14.120602294921875,2.364598512649536,-9.267156600952148,-2.1676852703094482
1771038063386568400,14.139568359375,1.0320550203323364,-9.588924407958984,-1.7770143747329712
1771038063405534500,14.158534423828126,-0.5615081787109375,-9.756003379821777,-0.8218904137611389
1771038063424500700,14.177500732421874,-1.958042860031128,-9.607672691345215,-0.17051582038402557
1771038063443466800,14.196466796875,-2.272836208343506,-9.539377212524414,-0.06992261111736298
1771038063462433000,14.21543310546875,-1.894433617591858,-9.616979598999023,0.30856290459632874
1771038063481399000,14.23439892578125,-2.0745701789855957,-9.5480318069458,0.8376379609107971
1771038063500365300,14.253365234375,-4.3701581954956055,-8.694217681884766,1.2176527976989746
1771038063519331300,14.272331298828124,-4.727799892425537,-8.385791778564453,1.8699694871902466
1771038063538297600,14.291297607421875,-4.290658473968506,-8.536581993103027,2.2107460498809814
1771038063557263600,14.310263671875,-3.9999310970306396,-8.689998626708984,2.1575124263763428
1771038063576230000,14.32922998046875,-3.8315420150756836,-8.831727981567383,1.8682224750518799
1771038063595196000,14.34819580078125,-3.2383790016174316,-9.118729591369629,1.591247320175171
1771038063614162200,14.367162109375,-2.5857601165771484,-9.354567527770996,1.4058120250701904
1771038063633128200,14.386128173828125,-2.096163749694824,-9.498876571655273,1.2441104650497437
1771038063652094500,14.405094482421875,-1.7196507453918457,-9.5926513671875,1.0928161144256592
1771038063671060500,14.424060546875,-1.2513651847839355,-9.679600715637207,0.9538348913192749
1771038063690026800,14.44302685546875,-0.4070790708065033,-9.761632919311523,0.8456851840019226
1771038063708992800,14.46199267578125,0.5149461030960083,-9.757834434509277,0.8305842876434326
1771038063727959000,14.480958984375,1.3716646432876587,-9.665119171142578,0.9350892305374146
1771038063746925000,14.499925048828125,2.438084840774536,-9.48021125793457,0.593071699142456
1771038063765891300,14.518891357421875,2.7324864864349365,-9.414680480957031,-0.2602035701274872
1771038063784857300,14.537857421875,2.960559844970703,-9.32293701171875,-0.6987964510917664
1771038063803823600,14.55682373046875,3.573735475540161,-9.1249418258667,-0.3663836121559143
1771038063822789600,14.57578955078125,4.2923407554626465,-8.803936958312988,0.4867223799228668
1771038063841756000,14.594755859375,4.783073425292969,-8.449494361877441,1.3779107332229614
1771038063860722000,14.613721923828125,5.127461910247803,-8.115665435791016,2.0038671493530273
1771038063879688200,14.632688232421875,5.394340515136719,-7.864128112792969,2.2862555980682373
1771038063898654200,14.651654296875,5.283298492431641,-7.993404388427734,2.0886895656585693
1771038063917620500,14.670620361328124,4.641096115112305,-8.50343132019043,1.523902416229248
1771038063936586500,14.68958642578125,4.071186542510986,-8.876355171203613,0.8978557586669922
1771038063955552500,14.708552490234375,3.622234582901001,-9.110678672790527,0.21288490295410156
1771038063974518800,14.727518798828125,2.9495058059692383,-9.341215133666992,-0.4609658122062683
1771038063993484800,14.74648486328125,2.7802696228027344,-9.358711242675781,-0.9246630668640137
1771038064012451000,14.765451171875,3.2669155597686768,-9.207854270935059,-0.8444338440895081
1771038064031417000,14.7844169921875,3.696065664291382,-9.069272994995117,-0.5077119469642639
1771038064050383400,14.80338330078125,3.708660364151001,-9.049381256103516,-0.7245316505432129
1771038064069349400,14.822349365234375,3.0540659427642822,-9.230330467224121,-1.2822074890136719
1771038064088315600,14.841315673828126,1.4490793943405151,-9.616121292114258,-1.2652168273925781
1771038064107281700,14.86028173828125,-0.5188575983047485,-9.774523735046387,-0.5998756885528564
1771038064126248000,14.879248046875,-2.048567295074463,-9.588247299194336,-0.19820965826511383
1771038064145214000,14.8982138671875,-2.4341347217559814,-9.498678207397461,-0.1431289166212082
1771038064164180000,14.917179931640625,-1.9907673597335815,-9.599898338317871,0.2217877209186554
1771038064183146200,14.936146240234375,-1.6916053295135498,-9.621620178222656,0.8563218712806702
1771038064202112300,14.9551123046875,-3.8785431385040283,-8.886430740356445,1.469234585762024
1771038064221078500,14.97407861328125,-4.397024154663086,-8.45659351348877,2.3070740699768066
1771038064240044500,14.99304443359375,-3.834839105606079,-8.585224151611328,2.7853734493255615
1771038064259010800,15.0120107421875,-3.4857170581817627,-8.732124328613281,2.7875046730041504
1771038064277976800,15.030976806640625,-3.2789950370788574,-8.872773170471191,2.5869827270507812
1771038064296942800,15.04994287109375,-3.0314676761627197,-8.996757507324219,2.4574265480041504
1771038064315909000,15.0689091796875,-2.5291290283203125,-9.147521018981934,2.469158887863159
1771038064334875100,15.087875244140625,-2.0508267879486084,-9.273490905761719,2.4427196979522705
1771038064353841200,15.106841064453125,-1.6551289558410645,-9.381214141845703,2.3288965225219727
1771038064372807400,15.125807373046875,-0.9999195337295532,-9.518743515014648,2.1363675594329834
1771038064391773400,15.1447734375,-0.14033381640911102,-9.629440307617188,1.8505544662475586
1771038064410739700,15.16373974609375,0.6234163641929626,-9.666070938110352,1.5325862169265747
1771038064429705700,15.182705810546874,1.385698676109314,-9.624931335449219,1.2692224979400635
1771038064448671700,15.201671630859375,2.000243902206421,-9.566285133361816,0.8096932172775269
1771038064467638000,15.220637939453125,1.8676294088363647,-9.624616622924805,-0.22158847749233246
1771038064486604000,15.23960400390625,1.7752022743225098,-9.555503845214844,-1.3081934452056885
1771038064505570300,15.2585703125,1.9660382270812988,-9.467323303222656,-1.6355019807815552
1771038064524536300,15.277536376953124,2.5718729496002197,-9.388906478881836,-1.1850250959396362
1771038064543502300,15.29650244140625,3.401628017425537,-9.192361831665039,-0.3159126937389374
1771038064562468600,15.315468505859375,4.039285182952881,-8.918830871582031,0.5558992028236389
1771038064581434600,15.3344345703125,4.531304836273193,-8.617937088012695,1.1699693202972412
1771038064600400600,15.353400634765626,4.840095043182373,-8.424883842468262,1.3286134004592896
1771038064619367000,15.372366943359374,4.68510103225708,-8.552361488342285,1.037948727607727
1771038064638333000,15.3913330078125,4.141721725463867,-8.875983238220215,0.48317277431488037
1771038064657299200,15.41029931640625,3.770080327987671,-9.049753189086914,-0.24259956181049347
1771038064676265200,15.42926513671875,3.2767090797424316,-9.177299499511719,-1.1003350019454956
1771038064695231200,15.448231201171875,2.446444511413574,-9.29463005065918,-1.948116660118103
1771038064714197500,15.467197509765626,2.5819051265716553,-9.157309532165527,-2.376518487930298
1771038064733163500,15.48616357421875,3.0337612628936768,-9.021389961242676,-2.3624558448791504
1771038064752129500,15.505129638671875,3.469245433807373,-8.940545082092285,-2.049727439880371
1771038064771095800,15.524095703125,3.4014947414398193,-8.861753463745117,-2.463646411895752
1771038064790061800,15.543061767578125,2.6458263397216797,-8.940690994262695,-3.0387542247772217
1771038064809028000,15.562028076171876,1.414965033531189,-9.231802940368652,-2.9903323650360107
1771038064827994000,15.580994140625,-0.15785902738571167,-9.566167831420898,-2.152653694152832
1771038064846960000,15.599960205078125,-1.6839624643325806,-9.586244583129883,-1.1994134187698364
1771038064865926100,15.618926025390625,-1.8613773584365845,-9.602237701416016,-0.7090100049972534
1771038064884892400,15.637892333984375,-1.4846181869506836,-9.693440437316895,-0.059195104986429214
1771038064903858400,15.6568583984375,-2.4135994911193848,-9.49483585357666,0.43934696912765503
1771038064922824700,15.67582470703125,-4.433914661407471,-8.697190284729004,0.932556688785553
1771038064941790700,15.694790771484374,-4.381934642791748,-8.70734691619873,1.072912573814392
1771038064960756700,15.7137568359375,-4.133583068847656,-8.83458137512207,1.0168806314468384
1771038064979723000,15.732722900390625,-4.090845108032227,-8.855074882507324,1.0114449262619019
1771038064998689000,15.75168896484375,-3.9337499141693115,-8.93801212310791,0.8988495469093323
1771038065017655000,15.770655029296876,-3.3549439907073975,-9.19439697265625,0.6146553158760071
1771038065036621300,15.789621337890624,-2.7858479022979736,-9.394305229187012,0.39553579688072205
1771038065055587300,15.80858740234375,-2.4373726844787598,-9.495558738708496,0.2529188096523285
1771038065074553300,15.82755322265625,-2.2060959339141846,-9.554435729980469,0.12756545841693878
1771038065093519600,15.84651953125,-1.7978711128234863,-9.640438079833984,-0.001357284258119762
1771038065112485600,15.865485595703126,-0.9636831283569336,-9.758453369140625,-0.11947592347860336
1771038065131451600,15.88445166015625,-0.03675364702939987,-9.805649757385254,-0.13516846299171448
1771038065150417700,15.903417724609374,0.9697871804237366,-9.758492469787598,-0.04155590385198593
1771038065169384000,15.922384033203125,2.205115795135498,-9.547844886779785,-0.3827844262123108
1771038065188350000,15.941349853515625,2.2409846782684326,-9.490325927734375,-1.0402380228042603
1771038065207316000,15.96031591796875,2.4645540714263916,-9.36031436920166,-1.5750842094421387
1771038065226282200,15.9792822265625,3.092844247817993,-9.167107582092285,-1.6027586460113525
1771038065245248300,15.998248291015624,3.8343448638916016,-8.965914726257324,-1.0395002365112305
1771038065264214300,16.01721435546875,4.367373943328857,-8.775487899780273,-0.2953639626502991
1771038065283180500,16.0361806640625,4.746857166290283,-8.57609748840332,0.2971397340297699
1771038065302146600,16.055146484375,5.0147929191589355,-8.407047271728516,0.5863428115844727
1771038065321112600,16.074112548828126,5.0951361656188965,-8.357357025146484,0.6037819981575012
1771038065340078600,16.09307861328125,4.882063865661621,-8.499126434326172,0.31731992959976196
1771038065359044900,16.112044921875,4.570204257965088,-8.674090385437012,-0.20920825004577637
1771038065378011000,16.131010986328125,4.36204195022583,-8.744027137756348,-0.8276216387748718
1771038065396977000,16.149976806640623,3.785843849182129,-8.897161483764648,-1.636546015739441
1771038065415943200,16.168943115234374,2.7962186336517334,-9.115155220031738,-2.2946646213531494
1771038065434909200,16.1879091796875,3.009838104248047,-9.083613395690918,-2.144584894180298
1771038065453875200,16.206875244140626,3.568995475769043,-8.979656219482422,-1.6728538274765015
1771038065472841200,16.22584130859375,3.671144723892212,-8.911272048950195,-1.8117157220840454
1771038065491807500,16.244807373046875,3.0248117446899414,-9.000761032104492,-2.450958728790283
1771038065510773500,16.2637734375,1.4951517581939697,-9.368086814880371,-2.4847261905670166
1771038065529739500,16.282739501953124,-0.4175582826137543,-9.661739349365234,-1.626904010772705
1771038065548705500,16.30170556640625,-1.9406721591949463,-9.587224006652832,-0.699514627456665
1771038065567671800,16.320671875,-2.0874221324920654,-9.574556350708008,-0.3754088580608368
1771038065586637800,16.339637939453127,-1.28472900390625,-9.721948623657227,0.05984942615032196
1771038065605603800,16.358603759765625,-1.581000804901123,-9.652581214904785,0.7060555219650269
1771038065624570000,16.377570068359375,-3.813159704208374,-8.969632148742676,1.0843884944915771
1771038065643536100,16.3965361328125,-3.9556984901428223,-8.830995559692383,1.5925917625427246
1771038065662502100,16.415502197265624,-3.8221044540405273,-8.880903244018555,1.640571117401123
1771038065681468200,16.43446826171875,-3.970494031906128,-8.84015941619873,1.502382755279541
1771038065700434400,16.453434326171877,-4.037228584289551,-8.841020584106445,1.3067193031311035
1771038065719400400,16.472400390625,-3.593183755874634,-9.067423820495605,1.0204129219055176
1771038065738366500,16.491366455078126,-2.8954739570617676,-9.339999198913574,0.742313802242279
1771038065757332500,16.51033251953125,-2.342862844467163,-9.50754451751709,0.5366533994674683
1771038065776298500,16.529298583984374,-1.9261417388916016,-9.60860824584961,0.3674183189868927
1771038065795264800,16.5482646484375,-1.6090962886810303,-9.670958518981934,0.23183703422546387
1771038065814230800,16.567230712890623,-1.0317996740341187,-9.75164794921875,0.10551140457391739
1771038065833196800,16.58619677734375,-0.21341204643249512,-9.804305076599121,0.021000176668167114
1771038065852162800,16.605162841796876,0.6182906627655029,-9.786988258361816,0.05437372252345085
1771038065871129000,16.624129150390626,1.5697988271713257,-9.679742813110352,0.09324121475219727
1771038065890095000,16.64309521484375,2.788893222808838,-9.388455390930176,-0.4993659555912018
1771038065909061000,16.66206103515625,2.8271000385284424,-9.323264122009277,-1.1201074123382568
1771038065928027100,16.681027099609373,2.9671196937561035,-9.221931457519531,-1.5240001678466797
1771038065946993400,16.699993408203124,3.5240864753723145,-9.047343254089355,-1.3772332668304443
1771038065965959400,16.71895947265625,4.157838821411133,-8.856356620788574,-0.6691094040870667
1771038065984925400,16.737925537109376,4.5126800537109375,-8.705120086669922,0.164292573928833
1771038066003891500,16.756891357421875,4.765654563903809,-8.527920722961426,0.8564401865005493
1771038066022857700,16.775857666015625,4.957100868225098,-8.374970436096191,1.2072287797927856
1771038066041823700,16.79482373046875,4.940067768096924,-8.398563385009766,1.1091666221618652
1771038066060789800,16.813789794921874,4.616595268249512,-8.628862380981445,0.6325885653495789
1771038066079755800,16.832755859375,4.233547210693359,-8.845732688903809,0.02207087352871895
1771038066098721800,16.8517216796875,3.898923397064209,-8.971527099609375,-0.6931712627410889
1771038066117688000,16.87068798828125,3.1710314750671387,-9.15554141998291,-1.5136009454727173
1771038066136654000,16.889654052734375,2.7266714572906494,-9.217572212219238,-1.9421652555465698
1771038066155620000,16.9086201171875,3.208362340927124,-9.0985107421875,-1.7589458227157593
1771038066174586000,16.927586181640624,3.615464687347412,-8.995966911315918,-1.4735641479492188
1771038066193552100,16.94655224609375,3.5908565521240234,-8.945502281188965,-1.803921103477478
1771038066212518400,16.965518310546877,2.9258265495300293,-9.037798881530762,-2.434772491455078
1771038066231484400,16.984484375,1.5820895433425903,-9.33625602722168,-2.5498456954956055
1771038066250450400,17.003450439453125,-0.15779952704906464,-9.620299339294434,-1.89613676071167
1771038066269416400,17.02241650390625,-1.6919925212860107,-9.601462364196777,-1.0580534934997559
1771038066288382500,17.041382568359374,-1.9980894327163696,-9.58324909210205,-0.5825397968292236
1771038066307348700,17.0603486328125,-1.3647326231002808,-9.711141586303711,-0.04024332016706467
1771038066326314800,17.079314697265627,-1.3581271171569824,-9.702473640441895,0.4334375560283661
1771038066345280800,17.09828076171875,-3.8164384365081787,-9.002790451049805,0.744949460029602
1771038066364246800,17.117246826171876,-4.456449031829834,-8.640541076660156,1.2851046323776245
1771038066383212800,17.136212890625,-4.186983585357666,-8.739069938659668,1.5060596466064453
1771038066402178800,17.1551787109375,-4.136045455932617,-8.767870903015137,1.4791755676269531
1771038066421145000,17.17414501953125,-4.083872318267822,-8.811841011047363,1.3578718900680542
1771038066440111000,17.193111083984373,-3.632627248764038,-9.03659439086914,1.14645254611969
1771038066459077000,17.2120771484375,-2.893432378768921,-9.324424743652344,0.9238668084144592
1771038066478043100,17.231043212890626,-2.3306548595428467,-9.496909141540527,0.7396955490112305
1771038066497009200,17.250009033203124,-1.9181824922561646,-9.600372314453125,0.5690418481826782
1771038066515975200,17.26897509765625,-1.6153581142425537,-9.66346549987793,0.4224238097667694
1771038066534941400,17.28794140625,-1.1187037229537964,-9.738441467285156,0.2857407033443451
1771038066563390500,17.316390380859374,0.03815412521362305,-9.805257797241211,0.16079987585544586
1771038066582356500,17.3353564453125,0.893700361251831,-9.762457847595215,0.2571016848087311
1771038066601322500,17.354322509765623,2.036341428756714,-9.591121673583984,0.1846369355916977
1771038066620288500,17.37328857421875,2.772016763687134,-9.388228416442871,-0.5894756317138672
1771038066639254500,17.392254638671876,2.8021883964538574,-9.322702407836914,-1.185477375984192
1771038066658220800,17.411220703125,3.2466275691986084,-9.177759170532227,-1.1825968027114868
1771038066677186800,17.430186767578125,3.929718255996704,-8.966292381286621,-0.5773177146911621
1771038066696152800,17.44915283203125,4.413269519805908,-8.754682540893555,0.22126363217830658
1771038066715118800,17.468118896484373,4.7294511795043945,-8.536006927490234,0.9691573977470398
1771038066734084900,17.4870849609375,4.949296474456787,-8.333226203918457,1.494051218032837
1771038066753051000,17.50605078125,5.041863918304443,-8.255223274230957,1.6128528118133545
1771038066772017000,17.525016845703124,4.653343677520752,-8.521223068237305,1.3804078102111816
1771038066790983200,17.543983154296875,4.163417816162109,-8.820231437683105,1.0197348594665527
1771038066809949200,17.56294921875,3.9764137268066406,-8.947359085083008,0.5507242679595947
1771038066828915200,17.581915283203124,3.3807432651519775,-9.203343391418457,-0.19859303534030914
1771038066847881200,17.600881103515626,2.607029914855957,-9.407769203186035,-0.9314783811569214
1771038066866847200,17.61984716796875,3.055163621902466,-9.261543273925781,-1.0296428203582764
1771038066885813200,17.638813232421874,3.726367712020874,-9.029657363891602,-0.8659396171569824
1771038066904779300,17.657779296875,4.002750396728516,-8.870965957641602,-1.2059595584869385
1771038066923745300,17.676745361328123,3.571293830871582,-8.9177885055542,-1.9721273183822632
1771038066942711600,17.695711669921874,2.3391265869140625,-9.25013256072998,-2.2658169269561768
1771038066961677600,17.714677490234376,0.42457205057144165,-9.632957458496094,-1.7878074645996094
1771038066980643600,17.7336435546875,-1.3781427145004272,-9.679591178894043,-0.7593629360198975
1771038066999609600,17.752609619140625,-1.7240797281265259,-9.65372085571289,0.0600191168487072
1771038067018575600,17.77157568359375,-1.0499824285507202,-9.732820510864258,0.583215057849884
1771038067037541600,17.790541748046873,-0.9995594620704651,-9.694906234741211,1.086309790611267
1771038067056507600,17.809507568359376,-3.563636302947998,-9.006157875061035,1.536230206489563
1771038067075473700,17.8284736328125,-3.971616506576538,-8.651015281677246,2.3572397232055664
1771038067094439700,17.847439697265624,-3.6463844776153564,-8.749780654907227,2.51308536529541
1771038067113405700,17.86640576171875,-3.7600529193878174,-8.76695728302002,2.2743897438049316
1771038067132372000,17.8853720703125,-3.8463048934936523,-8.778977394104004,2.0750598907470703
1771038067151338000,17.904337890625,-3.544604778289795,-8.886774063110352,2.152069568634033
1771038067170304000,17.923303955078126,-2.8680028915405273,-9.059770584106445,2.4218804836273193
1771038067189270000,17.94227001953125,-2.254417657852173,-9.172063827514648,2.638413667678833
1771038067208236000,17.961236083984375,-1.7445318698883057,-9.250364303588867,2.7491350173950195
1771038067227202000,17.9802021484375,-1.2429319620132446,-9.33123779296875,2.7483649253845215
1771038067246168000,17.99916796875,-0.6329847574234009,-9.426121711730957,2.6302006244659424
1771038067265134000,18.018134033203125,0.1070186123251915,-9.509634017944336,2.3928658962249756
1771038067284100000,18.03710009765625,0.8795251250267029,-9.533548355102539,2.1232709884643555
1771038067303066000,18.056066162109374,1.6514424085617065,-9.475034713745117,1.9149044752120972
1771038067322032400,18.075032470703125,1.9607757329940796,-9.477960586547852,1.5792369842529297
1771038067340998100,18.093998046875,2.0202455520629883,-9.558016777038574,0.8563380241394043
1771038067359964400,18.11296435546875,2.177372694015503,-9.559282302856445,0.22264549136161804
1771038067378930400,18.131930419921876,2.677732467651367,-9.43028736114502,0.2642287015914917
1771038067397896400,18.150896484375,3.4144623279571533,-9.142189979553223,0.9655011296272278
1771038067416862500,18.169862548828124,4.042482376098633,-8.731850624084473,1.8930164575576782
1771038067435828500,18.188828369140627,4.447634220123291,-8.308538436889648,2.7124032974243164
1771038067454794500,18.20779443359375,4.702337741851807,-7.970493793487549,3.2449405193328857
1771038067473760500,18.226760498046875,4.7600178718566895,-7.878810882568359,3.3818581104278564
1771038067492726500,18.2457265625,4.4968485832214355,-8.194901466369629,2.9651854038238525
1771038067511692500,18.264692626953124,4.04098653793335,-8.638161659240723,2.2853822708129883
1771038067530658600,18.283658447265626,3.7513442039489746,-8.9261474609375,1.5561800003051758
1771038067549624600,18.30262451171875,3.320060968399048,-9.19079875946045,0.8226768970489502
1771038067568590600,18.321590576171875,2.614924907684326,-9.451576232910156,0.016037732362747192
1771038067587556600,18.340556640625,2.813281774520874,-9.39055347442627,-0.270798921585083
1771038067606522600,18.359522705078124,3.3038828372955322,-9.23331356048584,-0.025630779564380646
1771038067625489000,18.378489013671874,3.513911247253418,-9.155461311340332,-0.018674425780773163
1771038067644454700,18.39745458984375,3.3123953342437744,-9.214923858642578,-0.5325621962547302
1771038067663421000,18.4164208984375,2.4587159156799316,-9.461099624633789,-0.7827531099319458
1771038067682387000,18.435386962890625,0.9489765763282776,-9.758870124816895,-0.18513549864292145
1771038067701353000,18.45435302734375,-0.7363868355751038,-9.7393159866333,0.8796846866607666
1771038067720319000,18.473319091796874,-1.7710778713226318,-9.548957824707031,1.3605436086654663
1771038067739285000,18.492284912109376,-1.6930451393127441,-9.522673606872559,1.6194695234298706
1771038067758251000,18.5112509765625,-1.6420856714248657,-9.359402656555176,2.423947334289551
1771038067777217000,18.530217041015625,-3.4839842319488525,-8.697826385498047,2.8948328495025635
1771038067796183000,18.54918310546875,-4.445011615753174,-8.070146560668945,3.35931396484375
1771038067815149000,18.568149169921874,-4.145524501800537,-8.062087059020996,3.740023136138916
1771038067834115000,18.587114990234376,-3.90165114402771,-8.210780143737793,3.6783971786499023
1771038067853081000,18.6060810546875,-3.6406641006469727,-8.383238792419434,3.5548903942108154
1771038067872047000,18.625047119140625,-3.32189679145813,-8.549385070800781,3.4703612327575684
1771038067891013000,18.64401318359375,-2.822323799133301,-8.719143867492676,3.4901864528656006
1771038067909979100,18.662979248046874,-2.322291612625122,-8.856958389282227,3.5116429328918457
1771038067928945200,18.681945068359376,-1.8945610523223877,-8.985940933227539,3.4400434494018555
1771038067947911200,18.7009111328125,-1.3428665399551392,-9.13821029663086,3.2954814434051514
1771038067966877200,18.719877197265625,-0.40296274423599243,-9.302967071533203,3.0761704444885254
1771038067985843200,18.73884326171875,0.5145597457885742,-9.381550788879395,2.8092892169952393
1771038068004809200,18.757809326171873,1.451769232749939,-9.336688995361328,2.6246893405914307
1771038068023775200,18.776775146484376,2.02307391166687,-9.239514350891113,2.5901572704315186
1771038068042741200,18.7957412109375,2.1853086948394775,-9.302226066589355,2.205313205718994
1771038068061707300,18.814707275390624,2.2569236755371094,-9.44534683227539,1.3645955324172974
1771038068080673300,18.83367333984375,2.5471134185791016,-9.427496910095215,0.897165834903717
1771038068099639300,18.852639404296873,3.1566734313964844,-9.210897445678711,1.1684038639068604
1771038068118605300,18.871605224609375,3.847463846206665,-8.815481185913086,1.9117273092269897
1771038068137571300,18.8905712890625,4.381647109985352,-8.322650909423828,2.775791645050049
1771038068156537300,18.909537353515624,4.7585129737854,-7.849278926849365,3.451920986175537
1771038068175503400,18.92850341796875,4.998833656311035,-7.600902557373047,3.66174054145813
1771038068194469400,18.947469482421877,4.88636589050293,-7.834800720214844,3.302985429763794
1771038068213435400,18.966435302734375,4.475715160369873,-8.325698852539062,2.611724853515625
1771038068232401400,18.9854013671875,3.9987637996673584,-8.712684631347656,2.066258430480957
1771038068251367400,19.004367431640624,3.383737087249756,-9.074963569641113,1.5380991697311401
1771038068270333400,19.02333349609375,2.554389476776123,-9.430889129638672,0.8389347791671753
1771038068289299500,19.042299560546876,2.6458163261413574,-9.43850040435791,0.29111576080322266
1771038068308265500,19.061265380859375,3.1163432598114014,-9.286955833435059,0.45960718393325806
1771038068327231500,19.0802314453125,3.417476177215576,-9.133261680603027,1.0367158651351929
1771038068346197500,19.099197509765624,3.563455581665039,-9.063389778137207,1.1520187854766846
1771038068365163500,19.11816357421875,3.5661730766296387,-9.095959663391113,0.8463615775108337
1771038068384129500,19.137129638671876,2.930934190750122,-9.3159818649292,0.8902215957641602
1771038068403095600,19.156095458984375,1.6674528121948242,-9.508828163146973,1.7240041494369507
1771038068422061600,19.1750615234375,0.264296293258667,-9.505075454711914,2.3987650871276855
1771038068441027600,19.194027587890623,-0.6230898499488831,-9.460618019104004,2.505760431289673
1771038068459993600,19.21299365234375,-0.9107049107551575,-9.270482063293457,3.0658037662506104
1771038068478959600,19.231959716796876,-1.8227380514144897,-8.769491195678711,3.9929986000061035
1771038068497925600,19.250925537109374,-3.7204184532165527,-8.05350112915039,4.179710388183594
1771038068516891600,19.2698916015625,-3.5172152519226074,-8.003891944885254,4.442667007446289
1771038068535857700,19.288857666015623,-3.524481773376465,-8.020763397216797,4.406332015991211
1771038068554823700,19.30782373046875,-3.642350435256958,-8.017566680908203,4.315356254577637
1771038068573789400,19.32678955078125,-3.649172306060791,-8.094596862792969,4.16310453414917
1771038068592755700,19.345755615234374,-3.1742780208587646,-8.408738136291504,3.922684907913208
1771038068611721500,19.364721435546876,-2.4152185916900635,-8.770696640014648,3.6622393131256104
1771038068630687700,19.383687744140627,-1.8079829216003418,-9.028756141662598,3.3738911151885986
1771038068649653500,19.402653564453125,-1.34877610206604,-9.213964462280273,3.0747451782226562
1771038068668619500,19.42161962890625,-0.9957888126373291,-9.348246574401855,2.7908897399902344
1771038068687585500,19.44058544921875,-0.6276316046714783,-9.458332061767578,2.5132479667663574
1771038068706551600,19.459551513671876,-0.044766101986169815,-9.546369552612305,2.243929386138916
1771038068725517600,19.478517578125,0.7518609762191772,-9.555789947509766,2.071706533432007
1771038068744483600,19.497483642578125,1.7982401847839355,-9.437139511108398,1.9690388441085815
1771038068782415600,19.53541552734375,2.8924331665039062,-9.278493881225586,1.3091106414794922
1771038068810864600,19.56386474609375,3.460850477218628,-9.103720664978027,1.1468064785003662
1771038068829830700,19.58283056640625,4.062775611877441,-8.74376392364502,1.791879653930664
1771038068848796700,19.601796630859376,4.492140293121338,-8.291280746459961,2.691788673400879
1771038068867762700,19.6207626953125,4.8251848220825195,-7.814504146575928,3.438241481781006
1771038068896211700,19.649211669921876,5.088942527770996,-7.584326267242432,3.5708608627319336
1771038068915177700,19.668177734375,4.599549293518066,-8.113847732543945,3.0298542976379395
1771038068934143500,19.6871435546875,4.191166400909424,-8.518479347229004,2.457648515701294
1771038068953109500,19.706109619140626,3.9230406284332275,-8.792275428771973,1.864411473274231
1771038068972075500,19.725075439453125,3.1944611072540283,-9.201024055480957,1.1432228088378906
1771038068991041500,19.74404150390625,2.927598237991333,-9.338051795959473,0.6327376961708069
1771038069010007600,19.763007568359374,3.4754045009613037,-9.113608360290527,1.0168970823287964
1771038069028973600,19.7819736328125,3.7465856075286865,-8.91714096069336,1.6180472373962402
1771038069047939600,19.800939697265626,4.032557010650635,-8.858844757080078,1.1957178115844727
1771038069066905600,19.819905517578125,3.954596996307373,-8.962969779968262,0.4435204565525055
1771038069085871600,19.83887158203125,3.1819775104522705,-9.270134925842285,0.331670880317688
1771038069104837600,19.857837646484374,1.8269606828689575,-9.568202018737793,1.1323026418685913
1771038069123803600,19.8768037109375,0.19109387695789337,-9.572733879089355,2.120530605316162
1771038069142769700,19.895769775390626,-1.047397255897522,-9.478785514831543,2.2860400676727295
1771038069161735700,19.914735595703124,-1.334753394126892,-9.376338005065918,2.5442287921905518
1771038069180701700,19.93370166015625,-1.6014032363891602,-9.054018020629883,3.4103753566741943
1771038069199667500,19.95266748046875,-3.687518835067749,-8.283942222595215,3.7348239421844482
1771038069218633500,19.971633544921875,-3.8856592178344727,-7.923431873321533,4.276830196380615
1771038069237599500,19.990599609375,-3.6339335441589355,-7.981636047363281,4.388440132141113
1771038069256565500,20.0095654296875,-3.570263624191284,-8.059294700622559,4.297832012176514
1771038069275531500,20.028531494140626,-3.5313334465026855,-8.142552375793457,4.171200275421143
1771038069294497500,20.04749755859375,-3.2387471199035645,-8.293229103088379,4.111355781555176
1771038069313463600,20.066463623046875,-2.4810667037963867,-8.52739143371582,4.159121990203857
1771038069332429600,20.0854296875,-1.8037117719650269,-8.72480583190918,4.098141670227051
1771038069351395600,20.1043955078125,-1.304356575012207,-8.89431381225586,3.9192121028900146
1771038069370361600,20.123361572265626,-0.8812690377235413,-9.04909896850586,3.6752638816833496
1771038069389327400,20.142327392578125,-0.30407238006591797,-9.185151100158691,3.4221224784851074
1771038069408293400,20.16129345703125,0.4100102186203003,-9.265668869018555,3.1858506202697754
1771038069427259400,20.18025927734375,1.2143700122833252,-9.239293098449707,3.0546929836273193
1771038069446225400,20.199225341796875,1.9801764488220215,-9.136138916015625,2.9631505012512207
1771038069465191400,20.21819140625,2.47105073928833,-9.090095520019531,2.7266180515289307
1771038069484157400,20.237157470703124,2.5231752395629883,-9.167179107666016,2.4014172554016113
1771038069503123500,20.25612353515625,2.8900632858276367,-9.135370254516602,2.0887606143951416
1771038069522089500,20.27508935546875,3.524993896484375,-8.837461471557617,2.3757262229919434
1771038069541055500,20.294055419921875,4.078510284423828,-8.358686447143555,3.1094207763671875
1771038069560021200,20.313021240234374,4.385478496551514,-7.830461025238037,3.9524474143981934
1771038069578987300,20.3319873046875,4.572661876678467,-7.34810209274292,4.611566543579102
1771038069597953300,20.350953369140626,4.712459087371826,-7.1012043952941895,4.851391315460205
1771038069616919300,20.369919189453125,4.63752555847168,-7.265813827514648,4.676717758178711
1771038069635885300,20.38888525390625,4.317787170410156,-7.720573902130127,4.233183860778809
1771038069654851300,20.407851318359373,3.9638137817382812,-8.159281730651855,3.7262156009674072
1771038069673817300,20.4268173828125,3.6937499046325684,-8.48488712310791,3.2455050945281982
1771038069692783400,20.445783447265626,3.4390971660614014,-8.759916305541992,2.7580549716949463
1771038069711749000,20.4647490234375,3.2938740253448486,-8.885285377502441,2.5243775844573975
1771038069730715100,20.483715087890626,3.5412893295288086,-8.698086738586426,2.8236441612243652
1771038069749681200,20.50268115234375,3.3543105125427246,-8.625393867492676,3.243699073791504
1771038069768647200,20.521647216796875,3.1370537281036377,-8.755364418029785,3.1101250648498535
1771038069787613200,20.54061328125,2.938267230987549,-8.974113464355469,2.646177053451538
1771038069816062200,20.569062255859375,1.7644286155700684,-9.336618423461914,2.425845146179199
1771038069835028200,20.5880283203125,0.19655288755893707,-9.398658752441406,2.7923061847686768
1771038069853994000,20.606993896484376,-1.2975529432296753,-9.329496383666992,2.728961706161499
1771038069872960000,20.6259599609375,-1.9380807876586914,-9.224043846130371,2.7076256275177
1771038069891926000,20.644926025390625,-2.127345323562622,-8.944867134094238,3.410884141921997
1771038069910892000,20.66389208984375,-3.1774468421936035,-8.435790061950684,3.861562967300415
1771038069929858000,20.682858154296873,-4.481794357299805,-8.022833824157715,3.4231622219085693
1771038069948824000,20.701823974609376,-4.372712135314941,-7.980279922485352,3.6558051109313965
1771038069967790000,20.7207900390625,-4.164577960968018,-7.999317646026611,3.8519582748413086
1771038069986755800,20.739755859375,-3.869257926940918,-8.122330665588379,3.902174472808838
1771038070005721900,20.758721923828126,-3.531766176223755,-8.316222190856934,3.8128035068511963
1771038070024687900,20.77768798828125,-3.0807361602783203,-8.575231552124023,3.6255831718444824
1771038070043654000,20.79665380859375,-2.446413516998291,-8.896419525146484,3.322524309158325
1771038070062620000,20.815619873046874,-1.8994910717010498,-9.174338340759277,2.8972110748291016
1771038070081586000,20.8345859375,-1.4952044486999512,-9.372458457946777,2.4681508541107178
1771038070100552000,20.853552001953126,-0.9819632172584534,-9.519702911376953,2.1404197216033936
1771038070119518000,20.87251806640625,-0.2972412705421448,-9.602666854858398,1.9674397706985474
1771038070138483700,20.891483642578127,0.4952394664287567,-9.589574813842773,1.9912736415863037
1771038070157449700,20.91044970703125,1.868432879447937,-9.316018104553223,2.427168130874634
1771038070176415700,20.929415771484376,2.9637575149536133,-8.873100280761719,2.9418721199035645
1771038070195381800,20.9483818359375,3.398244619369507,-8.711654663085938,2.954556703567505
1771038070214347800,20.96734765625,3.911755323410034,-8.452241897583008,3.0705318450927734
1771038070233313800,20.986313720703127,4.429779052734375,-7.941483497619629,3.6715495586395264
1771038070252279600,21.005279541015625,4.782037258148193,-7.3080925941467285,4.460302829742432
1771038070271245600,21.02424560546875,4.969298362731934,-6.747766971588135,5.09353494644165
1771038070290211600,21.043211669921874,5.059447765350342,-6.462987422943115,5.366765975952148
1771038070309177600,21.062177490234376,5.071341037750244,-6.641395568847656,5.132615566253662
1771038070337626600,21.090626708984374,4.651098728179932,-7.534717082977295,4.214938640594482
1771038070356592600,21.109592529296876,4.261723041534424,-8.052812576293945,3.6277129650115967
1771038070375558400,21.128558349609374,3.888580799102783,-8.413567543029785,3.2033133506774902
1771038070394524400,21.1475244140625,3.477740526199341,-8.726367950439453,2.815354347229004
1771038070413490400,21.166490478515627,3.7157516479492188,-8.804525375366211,2.2008893489837646
1771038070432456400,21.18545654296875,3.964982748031616,-8.698929786682129,2.1858458518981934
1771038070451422500,21.20442236328125,3.8132193088531494,-8.687117576599121,2.48268723487854
1771038070470388500,21.223388427734374,3.506206750869751,-8.887137413024902,2.2126235961914062
1771038070489354500,21.2423544921875,3.0744731426239014,-9.13772201538086,1.7944426536560059
1771038070508320500,21.261320556640626,2.1485769748687744,-9.434450149536133,1.5953540802001953
1771038070527286300,21.280286376953125,0.6709683537483215,-9.585514068603516,1.9591097831726074
1771038070546252300,21.299252197265623,-0.8007550239562988,-9.57573127746582,1.9581996202468872
1771038070565218300,21.31821826171875,-1.6120572090148926,-9.465422630310059,1.9943562746047974
1771038070584184300,21.337184326171876,-1.8489716053009033,-9.222209930419922,2.7753453254699707
1771038070603150300,21.356150390625,-2.6041576862335205,-8.68555736541748,3.734947681427002
1771038070622116000,21.3751162109375,-4.46330451965332,-7.71824312210083,4.083873271942139
1771038070641082000,21.39408203125,-4.234564781188965,-7.447213172912598,4.772617340087891
1771038070660048100,21.413048095703125,-4.263452529907227,-7.368444919586182,4.868201732635498
1771038070679014100,21.43201416015625,-4.223102569580078,-7.406395435333252,4.845729827880859
1771038070697980200,21.450980224609374,-3.9167301654815674,-7.470205307006836,5.002563953399658
1771038070716946200,21.4699462890625,-3.335522174835205,-7.562052249908447,5.278260707855225
1771038070735912200,21.488912109375,-2.814729928970337,-7.707317352294922,5.370748519897461
1771038070754878000,21.5078779296875,-2.131214141845703,-7.907096862792969,5.395009517669678
1771038070773844000,21.526843994140624,-1.428688406944275,-8.163711547851562,5.242428302764893
1771038070792810000,21.54581005859375,-0.8275923728942871,-8.478668212890625,4.857740879058838
1771038070811776000,21.56477587890625,-0.0823315680027008,-8.786104202270508,4.355224132537842
1771038070830742000,21.583741943359374,0.8519366383552551,-9.005217552185059,3.7882239818573
1771038070849708000,21.6027080078125,1.446744680404663,-9.174247741699219,3.1480929851531982
1771038070868674000,21.621674072265623,1.453568696975708,-9.40861701965332,2.352753162384033
1771038070887639800,21.640639892578125,1.4466780424118042,-9.59846305847168,1.3953584432601929
1771038070916088800,21.6690888671875,1.8860896825790405,-9.596553802490234,0.7205656170845032
1771038070935054800,21.688054931640625,2.602414846420288,-9.399947166442871,1.0192205905914307
1771038070954020900,21.707020751953124,3.322543144226074,-9.083860397338867,1.6169646978378296
1771038070972987000,21.72598681640625,3.8054893016815186,-8.752355575561523,2.2549781799316406
1771038070991952600,21.74495263671875,4.00543737411499,-8.546714782714844,2.660923719406128
1771038071010918700,21.763918701171875,3.797529697418213,-8.630280494689941,2.6958141326904297
1771038071029884700,21.782884765625,3.2321319580078125,-8.902872085571289,2.542156934738159
1771038071048850700,21.8018505859375,2.645989179611206,-9.190590858459473,2.1684486865997314
1771038071067816700,21.820816650390626,2.1402242183685303,-9.441730499267578,1.5631866455078125
1771038071086782700,21.83978271484375,1.7099401950836182,-9.61622142791748,0.8802129626274109
1771038071105748700,21.858748779296874,1.8415069580078125,-9.625261306762695,0.36548522114753723
1771038071124714500,21.877714599609376,2.864382028579712,-9.378268241882324,0.11743926256895065
1771038071143680500,21.896680419921875,3.8070900440216064,-9.036600112915039,-0.12769059836864471
1771038071162646500,21.915646484375,3.8951973915100098,-8.968746185302734,-0.7479397654533386
1771038071181612500,21.934612548828124,2.980769157409668,-9.210805892944336,-1.5641118288040161
1771038071200578600,21.95357861328125,1.7106940746307373,-9.470605850219727,-1.8845462799072266
1771038071219544300,21.97254443359375,0.2915291488170624,-9.656414985656738,-1.6849522590637207
1771038071238510300,21.99151025390625,-1.1457552909851074,-9.688546180725098,-0.9948365688323975
1771038071257476400,22.010476318359373,-2.432565450668335,-9.498427391052246,-0.18139921128749847
1771038071276442400,22.0294423828125,-2.643695592880249,-9.422277450561523,0.6339789628982544
1771038071295408400,22.048408447265626,-1.979617714881897,-9.265543937683105,2.530061960220337
1771038071314374400,22.06737451171875,-2.1605212688446045,-8.791687965393066,3.7694528102874756
1771038071333340400,22.08634033203125,-4.481115818023682,-8.249317169189453,2.835268497467041
1771038071352306400,22.105306396484377,-4.740106582641602,-8.034710884094238,3.0241029262542725
1771038071371272200,22.124272216796875,-4.582836151123047,-7.96189546585083,3.4316492080688477
1771038071390238200,22.14323828125,-4.341862201690674,-8.058597564697266,3.518183946609497
1771038071409204200,22.162204345703124,-3.9019534587860107,-8.31932544708252,3.425490617752075
1771038071428170200,22.181170166015626,-3.352303981781006,-8.642645835876465,3.199551582336426
1771038071447136300,22.20013623046875,-2.815084934234619,-8.914690017700195,2.9620912075042725
1771038071466102300,22.219102294921875,-2.4191176891326904,-9.108858108520508,2.7105307579040527
1771038071485068000,22.238068115234373,-2.105520009994507,-9.265175819396973,2.4276912212371826
1771038071504034000,22.257033935546875,-1.5470858812332153,-9.437785148620605,2.16913104057312
1771038071523000000,22.276,-0.7572818398475647,-9.581199645996094,1.9487224817276
1771038071541966000,22.294966064453124,0.0419585146009922,-9.642473220825195,1.7864314317703247
1771038071560932000,22.31393212890625,0.9114315509796143,-9.620765686035156,1.6674975156784058
1771038071579898000,22.332898193359377,2.1459755897521973,-9.482479095458984,1.2836543321609497
1771038071598864000,22.35186376953125,2.313971996307373,-9.45621109008789,1.1815237998962402
1771038071617830000,22.370829833984374,2.5575718879699707,-9.42745590209961,0.8673512935638428
1771038071636796000,22.3897958984375,3.156902313232422,-9.241962432861328,0.8890865445137024
1771038071655762000,22.408761962890626,3.8201539516448975,-8.90519905090332,1.5080565214157104
1771038071674728000,22.42772802734375,4.267157554626465,-8.514278411865234,2.3385508060455322
1771038071693694000,22.44669384765625,4.550143718719482,-8.201266288757324,2.864577293395996
1771038071722142700,22.475142822265624,4.72881555557251,-8.02574634552002,3.065303087234497
1771038071741108700,22.494108642578126,4.550500392913818,-8.233580589294434,2.7697460651397705
1771038071760074800,22.51307470703125,4.192050933837891,-8.58634090423584,2.2072255611419678
1771038071779040800,22.532040771484375,3.8795347213745117,-8.847146034240723,1.6874855756759644
1771038071798006800,22.5510068359375,3.573936700820923,-9.054956436157227,1.1853755712509155
1771038071816972800,22.569972900390624,2.8193416595458984,-9.378108024597168,0.5222943425178528
1771038071835938600,22.5889384765625,2.6532578468322754,-9.440807342529297,-0.04198600724339485
1771038071854904600,22.607904541015625,3.187509775161743,-9.274150848388672,0.016873052343726158
1771038071873870600,22.62687060546875,3.148090362548828,-9.284293174743652,0.2485879808664322
1771038071902319600,22.655319580078125,2.1820874214172363,-9.560632705688477,-0.05649678409099579
1771038071921285600,22.67428564453125,1.2448456287384033,-9.726679801940918,0.11162198334932327
1771038071940251600,22.693251708984373,0.2125401347875595,-9.779983520507812,0.690751314163208
1771038071959217400,22.712217529296876,-0.831878662109375,-9.698277473449707,1.1923855543136597
1771038071978183400,22.731183349609374,-1.4624686241149902,-9.553013801574707,1.6647818088531494
1771038071997149400,22.7501494140625,-1.5713759660720825,-9.340596199035645,2.5405569076538086
1771038072016115500,22.769115478515626,-2.672571897506714,-8.816201210021973,3.3618974685668945
1771038072035081500,22.78808154296875,-4.087109088897705,-8.183281898498535,3.5355072021484375
1771038072063530500,22.816530517578126,-3.8994736671447754,-8.00281810760498,4.113317489624023
1771038072082496300,22.835496337890625,-4.149676322937012,-7.842168807983398,4.177433967590332
1771038072101462300,22.854462158203123,-4.143163681030273,-7.790496826171875,4.279339790344238
1771038072120428300,22.87342822265625,-3.767927646636963,-7.909254550933838,4.406449794769287
1771038072139394300,22.892394287109376,-3.1586616039276123,-8.116389274597168,4.507491588592529
1771038072167843300,22.92084326171875,-2.266359329223633,-8.42658805847168,4.47511100769043
1771038072186809300,22.939809326171876,-1.7660316228866577,-8.628144264221191,4.313542366027832
1771038072205775000,22.958775146484374,-1.3195221424102783,-8.831918716430664,4.052957057952881
1771038072224741000,22.9777412109375,-0.49847134947776794,-9.034521102905273,3.7814464569091797
1771038072243707100,22.99670703125,0.48983004689216614,-9.160962104797363,3.4651458263397217
1771038072262673200,23.015673095703125,1.4858407974243164,-9.165095329284668,3.156532049179077
1771038072281639200,23.03463916015625,1.9594882726669312,-9.13066577911377,2.9936137199401855
1771038072300605200,23.053605224609374,2.0411195755004883,-9.219841957092285,2.6455132961273193
1771038072319571200,23.0725712890625,2.0797486305236816,-9.385937690734863,1.9362847805023193
1771038072338537200,23.091537109375,2.3258605003356934,-9.415319442749023,1.4534484148025513
1771038072357503000,23.1105029296875,3.058283805847168,-9.166768074035645,1.6696285009384155
1771038072376469000,23.129468994140623,3.8262524604797363,-8.698673248291016,2.421416997909546
1771038072395435000,23.14843505859375,4.3383660316467285,-8.19236946105957,3.199070930480957
1771038072414401000,23.167401123046876,4.606800556182861,-7.833810806274414,3.6849935054779053
1771038072433367000,23.186366943359374,4.69907808303833,-7.748619079589844,3.7480602264404297
1771038072452333000,23.2053330078125,4.534786701202393,-8.02806568145752,3.3400988578796387
1771038072471299000,23.224299072265627,4.0645012855529785,-8.51407527923584,2.675957679748535
1771038072490265000,23.24326513671875,3.5714030265808105,-8.882026672363281,2.1272220611572266
1771038072509230800,23.26223095703125,3.151651382446289,-9.148482322692871,1.5946077108383179
1771038072528196900,23.28119677734375,2.635556936264038,-9.406315803527832,0.8633859157562256
1771038072547163000,23.300162841796876,2.8182990550994873,-9.391772270202637,0.1489710658788681
1771038072566129000,23.31912890625,3.2669003009796143,-9.243865013122559,0.22070375084877014
1771038072585095000,23.338094970703125,3.249739408493042,-9.235686302185059,0.5582820773124695
1771038072604061000,23.35706103515625,2.768568992614746,-9.39571762084961,0.4752846360206604
1771038072623027000,23.37602685546875,2.2255752086639404,-9.538636207580566,0.48128122091293335
1771038072641992700,23.39499267578125,1.4692301750183105,-9.65452766418457,0.8954583406448364
1771038072660958700,23.413958740234374,0.4304731786251068,-9.668119430541992,1.585097074508667
1771038072679924700,23.4329248046875,-0.5687656998634338,-9.561553001403809,2.103236675262451
1771038072698890800,23.451890869140627,-1.040052056312561,-9.344549179077148,2.7871267795562744
1771038072717856800,23.470856689453125,-1.5530896186828613,-8.937690734863281,3.725048542022705
1771038072736822800,23.48982275390625,-3.6368396282196045,-8.18392562866211,3.9958906173706055
1771038072755788800,23.508788818359374,-3.58198618888855,-7.977383136749268,4.43859338760376
1771038072774754800,23.5277548828125,-3.7364304065704346,-7.944997310638428,4.368810176849365
1771038072793720800,23.546720947265626,-4.057827472686768,-7.899830341339111,4.1589789390563965
1771038072812686800,23.565686767578125,-4.029043674468994,-7.934336185455322,4.121105194091797
1771038072831652600,23.584652587890623,-3.471123456954956,-8.086801528930664,4.327276229858398
1771038072850618600,23.60361865234375,-2.7740213871002197,-8.250893592834473,4.516408443450928
1771038072869584600,23.622584716796876,-2.197983503341675,-8.400864601135254,4.556833267211914
1771038072888550700,23.641550537109374,-1.6748206615447998,-8.568899154663086,4.465348720550537
1771038072907516700,23.6605166015625,-1.030218243598938,-8.759010314941406,4.288214683532715
1771038072926482700,23.679482666015623,-0.11995053291320801,-8.94147777557373,4.025663375854492
1771038072945448700,23.69844873046875,0.8605430722236633,-9.046740531921387,3.685965061187744
1771038072964414700,23.717414794921876,1.7076681852340698,-9.05161190032959,3.364903211593628
1771038072983380500,23.73638037109375,2.279803991317749,-9.040745735168457,3.0393753051757812
1771038073002346500,23.755346435546876,2.362348794937134,-9.170007705688477,2.5496346950531006
1771038073021312500,23.7743125,2.4510438442230225,-9.306220054626465,1.8860116004943848
1771038073040278500,23.793278564453125,2.82399582862854,-9.27353572845459,1.4822183847427368
1771038073059244500,23.81224462890625,3.460236072540283,-9.012688636779785,1.7229620218276978
1771038073078210600,23.83121044921875,4.063961982727051,-8.57872486114502,2.4617233276367188
1771038073097176600,23.850176513671876,4.4134321212768555,-8.12376880645752,3.270536184310913
1771038073116142600,23.869142578125,4.543343544006348,-7.838988780975342,3.752154588699341
1771038073135108600,23.888108642578125,4.508678913116455,-7.78166389465332,3.9099762439727783
1771038073154074600,23.90707470703125,4.3067731857299805,-7.965193748474121,3.7653372287750244
1771038073173040600,23.92604052734375,3.9536008834838867,-8.317240715026855,3.370896339416504
1771038073192006400,23.94500634765625,3.560908079147339,-8.71790885925293,2.73649263381958
1771038073210972400,23.963972412109374,3.226392984390259,-9.025053024291992,2.0758578777313232
1771038073229938700,23.982938720703125,2.887723684310913,-9.264975547790527,1.411270022392273
1771038073248904400,24.001904541015627,2.890181303024292,-9.350554466247559,0.6199721693992615
1771038073267870500,24.020870361328125,3.5050010681152344,-9.15410327911377,0.2962087094783783
1771038073286836500,24.03983642578125,3.4777629375457764,-9.162363052368164,0.35588741302490234
1771038073305802500,24.058802490234374,2.60152530670166,-9.454442977905273,0.126407191157341
1771038073324768500,24.0777685546875,1.8136305809020996,-9.637457847595215,-0.02303042635321617
1771038073343734500,24.096734619140626,0.9032999873161316,-9.759855270385742,0.3157182037830353
1771038073362700500,24.115700439453125,-0.19754639267921448,-9.734238624572754,1.173008680343628
1771038073381666600,24.13466650390625,-1.2285711765289307,-9.509909629821777,2.0548994541168213
1771038073400632600,24.153632568359374,-1.491302251815796,-9.274298667907715,2.8166987895965576
1771038073419598600,24.1725986328125,-1.4027228355407715,-8.92785358428955,3.8073832988739014
1771038073438564600,24.191564697265626,-3.392118215560913,-8.3068208694458,3.957353353500366
1771038073457530600,24.210530517578125,-3.808198928833008,-8.119217872619629,3.968160390853882
1771038073476496600,24.22949658203125,-3.9884235858917236,-8.088528633117676,3.8520843982696533
1771038073495462700,24.248462646484374,-4.416873931884766,-8.012218475341797,3.5307183265686035
1771038073514428700,24.2674287109375,-4.6115193367004395,-8.012919425964355,3.270690441131592
1771038073533394400,24.28639453125,-4.219019889831543,-8.298648834228516,3.082641124725342
1771038073552360400,24.3053603515625,-3.6113030910491943,-8.645058631896973,2.896865129470825
1771038073571326500,24.324326416015627,-3.096637487411499,-8.862138748168945,2.83614444732666
1771038073590292500,24.34329248046875,-2.6616644859313965,-9.004036903381348,2.830770492553711
1771038073609258500,24.362258544921875,-2.278827667236328,-9.121521949768066,2.788397789001465
1771038073628224500,24.381224609375,-1.8855640888214111,-9.237923622131348,2.6973659992218018
1771038073647190500,24.4001904296875,-1.1136356592178345,-9.38212776184082,2.6279075145721436
1771038073666156500,24.419156494140626,-0.20104457437992096,-9.449125289916992,2.6161012649536133
