time,seconds_elapsed,z,y,x
1771038049453532200,0.2065322265625,-0.5235111117362976,1.8185445070266724,-0.5027416944503784
1771038049481981200,0.234981201171875,-0.9700532555580139,1.9730932712554932,-0.5241219997406006
1771038049500947200,0.253947265625,-1.29503333568573,1.2516618967056274,-0.38789913058280945
1771038049519913500,0.27291357421875,-1.285259485244751,0.235793799161911,-0.1337793916463852
1771038049538879500,0.29187939453125,-1.1508692502975464,-0.3426951467990875,0.08307760953903198
1771038049557845800,0.310845703125,-0.9908226728439331,-0.4477638900279999,0.01954767294228077
1771038049576811800,0.329811767578125,-0.8399390578269958,-0.7757982611656189,0.22968515753746033
1771038049595778000,0.348778076171875,-1.296255111694336,-1.4202606678009033,0.1490510106086731
1771038049614744000,0.367744140625,-1.4636319875717163,-1.6682716608047485,0.014049889519810677
1771038049633710000,0.3867099609375,-0.7800742983818054,-1.5399900674819946,-0.03298669680953026
1771038049652676000,0.405676025390625,-0.14599667489528656,-1.879020094871521,-0.05070177838206291
1771038049671642400,0.424642333984375,0.2571740746498108,-1.8338160514831543,-0.41905322670936584
1771038049690608400,0.4436083984375,0.8368847370147705,-1.6988149881362915,-0.7971785664558411
1771038049709574400,0.462574462890625,0.9089667797088623,-1.9682062864303589,-0.8631519079208374
1771038049728540400,0.48154052734375,0.39400777220726013,-2.5637993812561035,-0.5827649831771851
1771038049747506700,0.500506591796875,-0.2009745091199875,-2.7055201530456543,-0.05803215503692627
1771038049766472700,0.51947265625,-0.5094612240791321,-1.9260566234588623,0.5992583632469177
1771038049785439000,0.53843896484375,-0.37323838472366333,-0.31459537148475647,1.0476330518722534
1771038049804405000,0.557405029296875,-0.11178825795650482,0.8875865340232849,1.304807186126709
1771038049823371000,0.57637109375,-0.1178968995809555,-0.24251331388950348,1.324354887008667
1771038049842337300,0.595337158203125,-0.5784889459609985,-1.3671153783798218,0.4477638900279999
1771038049861303300,0.61430322265625,-1.0122029781341553,-1.2315033674240112,0.10506874322891235
1771038049880269300,0.633269287109375,-1.4001020193099976,-0.9376774430274963,0.18387030065059662
1771038049899235300,0.6522353515625,-1.3182462453842163,-0.720820426940918,0.5589412450790405
1771038049918201600,0.67120166015625,-0.8631519079208374,-0.5815432667732239,0.7721330523490906
1771038049937167600,0.690167724609375,-0.7666352987289429,-0.6139190793037415,0.3390299379825592
1771038049956133600,0.709133544921875,-0.6743947267532349,-0.001221729558892548,-0.10934479534626007
1771038049975100000,0.728099853515625,-0.42943793535232544,0.6426297426223755,-0.4563159942626953
1771038049994066000,0.74706591796875,-0.3530798554420471,0.7073814272880554,-0.5436696410179138
1771038050013032000,0.766031982421875,-0.318871408700943,0.5534434914588928,-0.40805765986442566
1771038050031998000,0.784998046875,-0.26511532068252563,0.3341430425643921,-0.18875721096992493
1771038050050964200,0.803964111328125,-0.17531819641590118,0.14538581669330597,0.01954767294228077
1771038050069930200,0.82293017578125,-0.017104214057326317,0.29565855860710144,0.05803215503692627
1771038050088896300,0.841896240234375,0.14660754799842834,0.5900954008102417,-0.2938259541988373
1771038050107862500,0.860862548828125,0.21685700118541718,0.7696896195411682,-0.9602794051170349
1771038050126828500,0.87982861328125,0.008552107028663158,0.6407971382141113,-1.7134757041931152
1771038050145794600,0.898794677734375,0.12034036219120026,0.7800742983818054,-1.7898337841033936
1771038050164760600,0.917760498046875,0.31642794609069824,0.905912458896637,-1.1148282289505005
1771038050183726600,0.9367265625,0.5870410799980164,1.5027273893356323,-0.3555232882499695
1771038050202692900,0.95569287109375,0.8772017955780029,2.3182318210601807,-0.1288924664258957
1771038050221659000,0.974658935546875,0.9975422024726868,2.380540132522583,-0.4862483739852905
1771038050240625000,0.993625,0.8497129082679749,2.000582218170166,-0.9144645929336548
1771038050259591200,1.012591064453125,0.5497782826423645,1.8698570728302002,-1.2302817106246948
1771038050278557200,1.03155712890625,0.7128791809082031,2.1251986026763916,-1.6310089826583862
1771038050297523200,1.050523193359375,0.8277217745780945,3.081812858581543,-2.263253927230835
1771038050316489200,1.0694892578125,0.6688969135284424,4.5527753829956055,-2.998124361038208
1771038050335455200,1.088455322265625,0.27427828311920166,6.084824085235596,-3.4629924297332764
1771038050354421500,1.10742138671875,-0.049480047076940536,3.9015934467315674,-2.7592761516571045
1771038050373387500,1.126387451171875,0.2309068888425827,2.8038692474365234,-0.6725621223449707
1771038050392353800,1.145353759765625,1.2467750310897827,1.507614254951477,1.0164790153503418
1771038050411319800,1.16431982421875,2.5503604412078857,1.7611231803894043,0.5864301919937134
1771038050430285800,1.183285888671875,3.336543321609497,3.020726442337036,-0.07757982611656189
1771038050449251800,1.202251953125,3.277289628982544,2.447735071182251,-1.0983349084854126
1771038050468217900,1.2212177734375,2.028071165084839,1.7061452865600586,-1.8069380521774292
1771038050487184000,1.240183837890625,0.9786053895950317,2.3396120071411133,-2.2479825019836426
1771038050506150100,1.259150146484375,0.42455101013183594,2.5405867099761963,-3.8185157775878906
1771038050525116200,1.2781162109375,-0.6114756464958191,1.6872085332870483,-4.351800918579102
1771038050544082200,1.297082275390625,-1.9083415269851685,0.5106829404830933,-3.9639015197753906
1771038050563048400,1.31604833984375,-3.163057804107666,0.45509424805641174,-4.214966773986816
1771038050582014500,1.335014404296875,-3.9095346927642822,2.1410810947418213,-4.249175548553467
1771038050600980500,1.35398046875,-4.120283126831055,3.769035577774048,-3.483761787414551
1771038050619946500,1.372946533203125,-3.8942630290985107,4.62730073928833,-2.10687255859375
1771038050638912500,1.39191259765625,-4.1257805824279785,5.115992546081543,-1.646891474723816
1771038050657878800,1.410878662109375,-5.307193279266357,4.478860378265381,-2.199113130569458
1771038050676844800,1.4298447265625,-5.127598762512207,1.92361319065094,-1.7934989929199219
1771038050695810800,1.448810791015625,-2.6975789070129395,-0.10506874322891235,-1.240666389465332
1771038050714776800,1.46777685546875,-0.021380268037319183,0.5687150955200195,-0.9181297421455383
1771038050733742800,1.486742919921875,1.3384047746658325,1.453247308731079,-0.26939135789871216
1771038050752709000,1.505709228515625,1.6927063465118408,1.9046764373779297,0.21441353857517242
1771038050771675100,1.524675048828125,2.076329469680786,4.348135471343994,1.1166608333587646
1771038050830916600,1.58391650390625,3.819126605987549,2.3371686935424805,3.521024703979492
1771038050849883000,1.6028828125,3.341430425643921,-0.3042106628417969,2.744004487991333
1771038050868849000,1.621848876953125,3.4855945110321045,0.059864748269319534,1.6627739667892456
1771038050887815000,1.64081494140625,3.1777186393737793,-0.33108872175216675,0.6914989352226257
1771038050906781000,1.659781005859375,2.525315046310425,-1.637117624282837,-0.33108872175216675
1771038050925747000,1.678746826171875,2.0402884483337402,-3.9193084239959717,-1.655443549156189
1771038050944713200,1.697713134765625,1.6969823837280273,-4.668228626251221,-3.266904830932617
1771038050963679200,1.71667919921875,1.8008294105529785,-4.626689910888672,-3.4794857501983643
1771038050982645200,1.735645263671875,1.9792019128799438,-5.380496978759766,-3.1789402961730957
1771038051001611300,1.754611328125,2.2027783393859863,-4.714654445648193,-2.0488405227661133
1771038051020577500,1.77357763671875,1.915671944618225,-3.3316564559936523,-2.3909246921539307
1771038051039543600,1.79254345703125,2.377485752105713,-4.114785194396973,-3.31333065032959
1771038051058509600,1.811509521484375,1.1777472496032715,-2.394589900970459,-4.688998222351074
1771038051077475600,1.8304755859375,-0.27488914132118225,-2.6621487140655518,-4.173428058624268
1771038051096441600,1.849441650390625,-1.3390156030654907,-2.561966896057129,-4.675559043884277
1771038051115408000,1.868407958984375,-2.2027783393859863,-1.6603304147720337,-3.7849180698394775
1771038051134374000,1.887373779296875,-3.573559045791626,-0.20769402384757996,-1.9559890031814575
1771038051153340000,1.90633984375,-5.699368476867676,1.2009601593017578,-0.44470956921577454
1771038051172306000,1.925305908203125,-7.990111351013184,3.6456410884857178,-0.0513126403093338
1771038051191272000,1.94427197265625,-9.305913925170898,4.952891826629639,0.972496747970581
1771038051210238200,1.96323828125,-9.524603843688965,4.179536819458008,2.238208532333374
1771038051229204200,1.982204345703125,-7.413455009460449,2.715904712677002,1.2742639780044556
1771038051248170200,2.001170166015625,-3.640753984451294,0.9211840629577637,-0.3298669755458832
1771038051267136300,2.02013623046875,-0.7721330523490906,1.8900156021118164,-0.7318159937858582
1771038051286102500,2.0391025390625,0.02932151034474373,3.3426520824432373,-0.24556763470172882
1771038051305068500,2.058068603515625,-0.8368847370147705,1.7592905759811401,-0.277332603931427
1771038051324034600,2.07703466796875,-1.9608759880065918,0.46914416551589966,-0.7977893948554993
1771038051343000600,2.09600048828125,-2.7879867553710938,-1.4734058380126953,-1.0250310897827148
1771038051361966600,2.114966552734375,-2.780656576156616,-3.6309802532196045,-1.0103703737258911
1771038051380932900,2.133932861328125,-2.2650866508483887,-8.61319351196289,-1.711643099784851
1771038051399899000,2.15289892578125,-1.8765766620635986,-9.826371192932129,-2.0195188522338867
1771038051418865000,2.171864990234375,-1.5528182983398438,-7.55517578125,-1.1044435501098633
1771038051437831000,2.190830810546875,-1.6102395057678223,-4.029263973236084,0.37140578031539917
1771038051456797200,2.209797119140625,-1.8741331100463867,-1.694538950920105,1.2534945011138916
1771038051475763200,2.22876318359375,-2.086714029312134,0.9676098227500916,2.1526875495910645
1771038051494729200,2.247729248046875,-1.0030399560928345,-2.3237295150756836,0.10873392969369888
1771038051513695200,2.2666953125,2.4483461380004883,-5.709142208099365,-1.7336342334747314
1771038051532661500,2.28566162109375,7.414676666259766,6.356658935546875,9.100663185119629
1771038051551627500,2.30462744140625,2.2418737411499023,1.4208714962005615,4.860040187835693
1771038051570593500,2.323593505859375,1.5406010150909424,0.024434590712189674,1.3756674528121948
1771038051589559600,2.3425595703125,1.6872085332870483,0.0513126403093338,-0.16004657745361328
1771038051608525800,2.36152587890625,1.9584324359893799,-0.5998691916465759,-0.5998691916465759
1771038051627491800,2.380491943359375,1.8069380521774292,-2.321286201477051,-0.8222240209579468
1771038051646457900,2.399457763671875,0.9798271059989929,-1.8093814849853516,-1.0177006721496582
1771038051665424000,2.418423828125,0.2834412455558777,-0.13194678723812103,-1.5381574630737305
1771038051684390100,2.43739013671875,-0.15515965223312378,0.8283326625823975,-2.42268967628479
1771038051703356200,2.456356201171875,-0.3274235129356384,2.134361505508423,-2.676809549331665
1771038051722322200,2.475322265625,-0.39339691400527954,3.3096654415130615,-2.4849979877471924
1771038051741288400,2.494288330078125,-0.7745765447616577,5.379275321960449,1.915671944618225
1771038051760254500,2.51325439453125,-1.1398736238479614,2.626718521118164,9.103106498718262
1771038051779220500,2.532220458984375,-2.1355831623077393,-8.188031196594238,7.628479480743408
1771038051798186800,2.551186767578125,-0.7892373204231262,-4.752528190612793,-1.5137228965759277
1771038051817152800,2.57015283203125,1.3866630792617798,0.2809978127479553,-7.188656806945801
1771038051836118800,2.589118896484375,1.5296053886413574,3.5002551078796387,-8.013323783874512
1771038051855084800,2.608084716796875,1.284037709236145,4.398226261138916,-6.633991718292236
1771038051874051000,2.627051025390625,0.7073814272880554,5.221672058105469,-4.087907314300537
1771038051893017000,2.64601708984375,-0.28466299176216125,5.373166561126709,-1.1459823846817017
1771038051911983000,2.664983154296875,-1.3988803625106812,4.276053428649902,2.5802929401397705
1771038051930949400,2.683949462890625,0.12217295914888382,-0.2834412455558777,4.017046928405762
1771038051949915400,2.702915283203125,2.718348264694214,-1.0702351331710815,-2.5411975383758545
1771038051968881400,2.72188134765625,-0.46059203147888184,2.481332778930664,-11.862994194030762
1771038051987847700,2.74084765625,-0.7550288438796997,-6.425075531005859,-2.5192062854766846
1771038052006813700,2.759813720703125,-0.19792018830776215,-0.7452550530433655,-2.0573925971984863
1771038052025779700,2.77877978515625,0.6120865345001221,3.4025168418884277,-2.5216498374938965
1771038052044746000,2.79774609375,1.0702351331710815,3.19970965385437,-0.9920443892478943
1771038052063712000,2.8167119140625,1.0775654315948486,-0.7098248600959778,2.503323793411255
1771038052082678300,2.83567822265625,0.8271108865737915,-1.3964369297027588,3.0078980922698975
1771038052101644300,2.854644287109375,0.4838049113750458,-0.6548470258712769,2.173456907272339
1771038052120610300,2.8736103515625,0.3017672002315521,-0.47036588191986084,1.8106032609939575
1771038052139576600,2.89257666015625,0.10873392969369888,-1.3927717208862305,2.3066253662109375
1771038052158542600,2.91154248046875,-0.27366742491722107,-2.467893600463867,2.6584835052490234
1771038052177508600,2.930508544921875,-0.544891357421875,-2.3628249168395996,2.3848161697387695
1771038052196475000,2.949474853515625,-0.5119046568870544,-2.5216498374938965,2.7415611743927
1771038052215441000,2.96844091796875,-0.4630354940891266,-3.582111120223999,3.615097761154175
1771038052234407200,2.9874072265625,0.8356630206108093,-7.470876216888428,6.035344123840332
1771038052253373200,3.006373291015625,3.265683174133301,2.299294948577881,5.011534690856934
1771038052272339200,3.025339111328125,2.2430953979492188,2.2821907997131348,3.0384414196014404
1771038052291305500,3.044305419921875,1.6859867572784424,-2.4385721683502197,1.9010112285614014
1771038052310271500,3.063271484375,0.3946186602115631,-4.831940174102783,1.528383731842041
1771038052329237800,3.08223779296875,-1.1349867582321167,-4.482525825500488,0.20280711352825165
1771038052348203800,3.101203857421875,-1.6029092073440552,-2.7867650985717773,-1.1948515176773071
1771038052367170000,3.120170166015625,-1.276707410812378,-0.07452550530433655,-1.3487894535064697
1771038052386136000,3.139135986328125,-0.8503237962722778,2.0476186275482178,-1.109330415725708
1771038052405102000,3.15810205078125,-0.5522217750549316,1.977980136871338,-1.5234967470169067
1771038052424068400,3.177068359375,-0.2993237376213074,0.9517273306846619,-2.397033452987671
1771038052443034600,3.19603466796875,0.08674279600381851,1.750738501548767,-2.204000234603882
1771038052462000600,3.215000732421875,0.4874700903892517,3.2033748626708984,-1.9572107791900635
1771038052480967000,3.233966796875,0.7696896195411682,4.113563537597656,-1.7104213237762451
1771038052499933000,3.252932861328125,0.9969313144683838,0.695164144039154,1.3634501695632935
1771038052518899200,3.271899169921875,0.750141978263855,-3.098306179046631,1.5247185230255127
1771038052537865200,3.290865234375,0.5815432667732239,-0.28588470816612244,-0.4520399272441864
1771038052556831500,3.30983154296875,-0.06352993845939636,6.029235363006592,-1.2363903522491455
1771038052575797500,3.328797607421875,-1.275485634803772,9.985196113586426,-1.8289291858673096
1771038052594763800,3.347763671875,-1.868024468421936,6.900328636169434,-4.032929420471191
1771038052613729800,3.366729736328125,-1.5552617311477661,3.5674502849578857,-4.772075653076172
1771038052632696000,3.385696044921875,-0.9834923148155212,1.3695588111877441,-3.084867238998413
1771038052651662000,3.404662109375,-1.8350378274917603,-0.47525280714035034,0.6914989352226257
1771038052670628400,3.42362841796875,-2.883281707763672,-3.4550511837005615,2.559523344039917
1771038052689594600,3.4425947265625,-1.469740629196167,-4.571712017059326,-1.5833615064620972
1771038052708560600,3.461560546875,-2.6059491634368896,4.27971887588501,-11.472040176391602
1771038052727527000,3.48052685546875,-1.8387030363082886,6.709738731384277,-2.9846854209899902
1771038052746493000,3.499492919921875,-0.35063639283180237,1.7372994422912598,0.5986474752426147
1771038052765459200,3.518459228515625,0.034208428114652634,-0.998153030872345,-0.9236275553703308
1771038052784425200,3.53742529296875,-0.16859868168830872,-2.2064435482025146,-0.23823726177215576
1771038052803391500,3.5563916015625,-0.11484257876873016,-1.5723659992218018,1.324354887008667
1771038052822357800,3.575357666015625,0.08552107214927673,0.9517273306846619,2.2149956226348877
1771038052841323800,3.59432373046875,0.3042106628417969,2.7696609497070312,2.3090689182281494
1771038052860290000,3.6132900390625,0.5888736248016357,3.0579891204833984,2.8319690227508545
1771038052879256300,3.63225634765625,0.6695078015327454,2.1441354751586914,3.75559663772583
1771038052898222300,3.651222412109375,0.3384190797805786,-0.25411975383758545,4.053698539733887
1771038052917188600,3.670188720703125,0.059864748269319534,-1.8362594842910767,3.67984938621521
1771038052936155000,3.68915478515625,0.09162971377372742,-2.290742874145508,3.392742872238159
1771038052955121000,3.708120849609375,0.2834412455558777,-2.97857666015625,2.9407031536102295
1771038052974087200,3.727087158203125,0.8014546036720276,-2.450789451599121,0.758694052696228
1771038052993053400,3.746053466796875,2.783099889755249,0.9370665550231934,3.8350090980529785
1771038053012019500,3.76501953125,2.307847023010254,4.059807300567627,2.4654502868652344
1771038053030985700,3.78398583984375,0.8857539296150208,1.0653481483459473,0.9908226728439331
1771038053049952000,3.802951904296875,0.647516667842865,-3.451385974884033,1.9669846296310425
1771038053068918300,3.821918212890625,0.04520399495959282,-5.4696831703186035,2.4483461380004883
1771038053087884300,3.84088427734375,-0.8063415288925171,-4.557051181793213,1.7959424257278442
1771038053106850600,3.8598505859375,-1.2877029180526733,-3.1532840728759766,0.9810488224029541
1771038053125816800,3.87881689453125,-1.1447606086730957,-1.6236785650253296,0.1441640853881836
1771038053144783000,3.897783203125,-0.7953459620475769,-0.9175189137458801,-1.237612009048462
1771038053163749000,3.9167490234375,-0.5656607747077942,-1.2363903522491455,-2.453233003616333
1771038053182715400,3.93571533203125,-0.09651663154363632,-0.2516762912273407,-1.832594394683838
1771038053201681700,3.954681640625,0.4105011224746704,1.3634501695632935,-0.7660244107246399
1771038053220648000,3.97364794921875,0.8552106618881226,2.338390350341797,-0.5192350745201111
1771038053239614000,3.992614013671875,1.166751742362976,-4.173428058624268,0.40805765986442566
1771038053258580200,4.011580322265625,0.9309579133987427,-8.420160293579102,3.666410446166992
1771038053277546500,4.03054638671875,1.1252129077911377,-5.861858367919922,1.3952151536941528
1771038053296512800,4.0495126953125,1.5992439985275269,4.135554790496826,-1.830150842666626
1771038053315479000,4.06847900390625,1.0409135818481445,11.081087112426758,-5.516108989715576
1771038053334445000,4.087445068359375,-0.4312705397605896,10.06583023071289,-9.77872371673584
1771038053353411300,4.106411376953125,-1.8423681259155273,8.001107215881348,-10.100038528442383
1771038053372377600,4.125377685546875,-0.8894191384315491,4.8551530838012695,-2.863734006881714
1771038053391343900,4.14434375,-0.6988292932510376,0.5387827157974243,6.0646653175354
1771038053410310100,4.16331005859375,-4.55460786819458,-4.382343769073486,7.412233352661133
1771038053429276400,4.1822763671875,-6.1624040603637695,-19.8983097076416,-7.849612236022949
1771038053448242700,4.20124267578125,-0.9138537049293518,-7.673683166503906,-10.005965232849121
1771038053467208700,4.220208740234375,0.6389645338058472,7.1739959716796875,-1.9132285118103027
1771038053486175000,4.239175048828125,2.1111485958099365,3.951073408126831,-1.4159845113754272
1771038053505141200,4.258141357421875,2.017075538635254,2.3787074089050293,0.2993237376213074
1771038053524107500,4.277107421875,1.693317174911499,1.5784746408462524,1.8545855283737183
1771038053543073800,4.29607373046875,1.656665325164795,-0.8747583627700806,3.8985390663146973
1771038053562040000,4.3150400390625,1.7776165008544922,-1.4440842866897583,4.280940532684326
1771038053581006300,4.33400634765625,1.7666209936141968,-0.05742128938436508,3.492924690246582
1771038053599972400,4.352972412109375,1.6701042652130127,1.1056652069091797,2.981020212173462
1771038053618938600,4.371938720703125,1.4563016891479492,0.943175196647644,2.8270821571350098
1771038053637905000,4.39090478515625,1.091004490852356,-0.7391464114189148,3.4599380493164062
1771038053656871200,4.40987109375,0.8735366463661194,-2.0341796875,3.9974992275238037
1771038053675837400,4.42883740234375,0.411722868680954,-2.776991367340088,2.7415611743927
1771038053694803700,4.4478037109375,1.6591087579727173,1.626121997833252,7.538071155548096
1771038053713770000,4.46677001953125,2.911381483078003,8.16848373413086,4.324922561645508
1771038053732736300,4.485736328125,1.674991250038147,-0.9944878816604614,0.2761108875274658
1771038053751702500,4.50470263671875,0.8283326625823975,-6.1905035972595215,2.5973970890045166
1771038053770668800,4.523668701171875,-0.38240134716033936,-6.903993606567383,2.66581392288208
1771038053789635000,4.542635009765625,-1.3011419773101807,-6.708517074584961,1.0238093137741089
1771038053808601300,4.561601318359375,-1.5015056133270264,-4.8466010093688965,0.9749401807785034
1771038053827567600,4.580567626953125,-0.31031930446624756,-3.00056791305542,1.4025455713272095
1771038053846534000,4.599533935546875,1.3182462453842163,-3.163057804107666,0.26511532068252563
1771038053865500200,4.618500244140625,1.9572107791900635,-2.3787074089050293,-1.4123194217681885
1771038053884466400,4.637466552734375,2.598618745803833,-0.8796452879905701,-1.3634501695632935
1771038053903432700,4.6564326171875,3.886321783065796,-0.14049890637397766,-2.880838394165039
1771038053922399000,4.67539892578125,4.537503719329834,1.314581036567688,-5.230224132537842
1771038053941365200,4.694365234375,1.8619158267974854,-7.010284423828125,1.7531819343566895
1771038053960331500,4.71333154296875,-0.17226386070251465,-3.2449138164520264,2.6132795810699463
1771038053979297800,4.7322978515625,-0.8307760953903198,8.848987579345703,1.0164790153503418
1771038053998264000,4.75126416015625,-1.8643592596054077,10.758550643920898,-1.8032728433609009
1771038054017230300,4.770230224609375,-3.134958028793335,5.9082841873168945,-6.2014994621276855
1771038054036196600,4.789196533203125,-4.0585856437683105,4.786736488342285,-7.600379467010498
1771038054055163000,4.808162841796875,-3.9217519760131836,4.659676551818848,-6.2014994621276855
1771038054074129200,4.827129150390625,-2.869842767715454,0.028099779039621353,-2.0781619548797607
1771038054093095400,4.846095458984375,-2.8515167236328125,-4.406778335571289,3.7348272800445557
1771038054112061700,4.865061767578125,-3.562563419342041,-6.8893327713012695,1.9242240190505981
1771038054131028000,4.884028076171875,-2.917490243911743,-8.587536811828613,-12.613136291503906
1771038054149994200,4.902994140625,-0.554665207862854,0.9456186890602112,-3.897317409515381
1771038054168960500,4.92196044921875,0.47525280714035034,1.6982040405273438,-0.80389803647995
1771038054187926800,4.9409267578125,1.119104266166687,1.0396918058395386,-2.737895965576172
1771038054206893000,4.95989306640625,0.8735366463661194,0.7415898442268372,-0.9602794051170349
1771038054225859300,4.978859375,0.5094612240791321,-0.10384701192378998,3.071428060531616
1771038054244825600,4.99782568359375,0.5143481492996216,0.2419024556875229,3.8826565742492676
1771038054263791900,5.0167919921875,0.6963858604431152,1.832594394683838,2.4434590339660645
1771038054282758100,5.035758056640625,1.1117738485336304,2.3762640953063965,1.431867003440857
1771038054301724400,5.054724365234375,1.2327251434326172,1.6786564588546753,1.0690133571624756
1771038054320690700,5.073690673828125,1.000596523284912,-1.247385859489441,2.1893393993377686
1771038054339657200,5.0926572265625,0.7159335017204285,-4.217410564422607,3.8765478134155273
1771038054358623500,5.11162353515625,0.4557051360607147,-5.159363746643066,4.296823024749756
1771038054377589800,5.13058984375,0.06719512492418289,-4.833162307739258,3.981616735458374
1771038054396556000,5.14955615234375,-0.16004657745361328,0.22846342623233795,3.705505847930908
1771038054415522300,5.168522216796875,0.6340776681900024,8.189252853393555,5.305971622467041
1771038054434488600,5.187488525390625,1.9303326606750488,1.0775654315948486,1.1924080848693848
1771038054453454800,5.206454833984375,1.442862629890442,-1.4489712715148926,1.6994258165359497
1771038054472421000,5.225421142578125,0.03543015569448471,-4.305375099182129,2.674365997314453
1771038054491387400,5.244387451171875,-0.8955277800559998,-6.100095748901367,2.8380777835845947
1771038054510353700,5.263353759765625,-1.1044435501098633,-5.020086765289307,2.0781619548797607
1771038054529320000,5.28231982421875,-0.546113133430481,-2.5558581352233887,1.5748094320297241
1771038054548286200,5.3012861328125,0.49113526940345764,-1.5552617311477661,1.0030399560928345
1771038054567252700,5.320252685546875,1.5870267152786255,-1.4831796884536743,-0.5436696410179138
1771038054586219000,5.339218994140625,2.149022340774536,-1.1643083095550537,-1.9853105545043945
1771038054605185300,5.358185302734375,2.4349069595336914,-0.31642794609069824,-1.5234967470169067
1771038054624151600,5.377151611328125,2.926042318344116,0.7806851863861084,-1.2339468002319336
1771038054643117800,5.396117919921875,4.1868672370910645,-0.6524035930633545,-4.290714263916016
1771038054662084000,5.415083984375,3.1752750873565674,-4.323700904846191,-0.6059778332710266
1771038054681050400,5.43405029296875,1.4049890041351318,-6.288241863250732,2.2614214420318604
1771038054700016600,5.4530166015625,0.2724456787109375,-1.1850776672363281,1.986532211303711
1771038054718983200,5.471983154296875,-0.44959646463394165,10.714568138122559,1.6810998916625977
1771038054737949400,5.490949462890625,-1.8448116779327393,13.065176010131836,-1.1337649822235107
1771038054756915700,5.509915771484375,-3.4416122436523438,7.050601482391357,-6.1233086585998535
1771038054775882000,5.528882080078125,-4.382343769073486,4.009716510772705,-8.150157928466797
1771038054794848300,5.54784814453125,-3.996277332305908,1.8240422010421753,-6.2210469245910645
1771038054813814500,5.566814453125,-2.9724678993225098,-2.922377109527588,0.03543015569448471
1771038054832780800,5.58578076171875,-3.6676321029663086,-5.9693708419799805,3.85333514213562
1771038054861230300,5.614230224609375,-3.464824914932251,-6.571683406829834,-12.690104484558105
1771038054880196600,5.633196533203125,-0.2675587832927704,3.5283548831939697,-5.739685535430908
1771038054899163000,5.652162841796875,0.9700532555580139,1.8716896772384644,-0.23212862014770508
1771038054918129200,5.671129150390625,1.1740821599960327,-0.4361574649810791,-1.2339468002319336
1771038054937095400,5.690095458984375,0.8674280047416687,-0.1185077652335167,-1.1520910263061523
1771038054956062000,5.70906201171875,0.6487383842468262,0.1588248461484909,1.0958913564682007
1771038054975028200,5.7280283203125,0.7171552777290344,1.5968005657196045,3.7910268306732178
1771038054993994500,5.746994384765625,1.0641264915466309,3.447720766067505,3.1679446697235107
1771038055012960800,5.765960693359375,1.362228512763977,3.5723371505737305,2.0439536571502686
1771038055031927000,5.784927001953125,1.3267983198165894,2.4043638706207275,1.6334524154663086
1771038055050893300,5.803893310546875,0.84177166223526,-1.1704169511795044,2.9358160495758057
1771038055069859600,5.822859619140625,0.5131264328956604,-3.850891590118408,3.8570001125335693
1771038055088826000,5.841826171875,0.5705476999282837,-4.638906955718994,3.9803948402404785
1771038055107792400,5.86079248046875,0.5962040424346924,-4.420217514038086,3.8203482627868652
1771038055126758700,5.879758544921875,1.0054833889007568,0.22968515753746033,3.8875434398651123
1771038055145725000,5.898724853515625,1.617569923400879,5.404931545257568,4.71587610244751
1771038055164691200,5.917691162109375,1.2302817106246948,0.831997811794281,1.7947207689285278
1771038055183657500,5.936657470703125,1.2253947257995605,-1.5234967470169067,2.2528693675994873
1771038055202624000,5.9556240234375,-0.07086031138896942,-4.853931427001953,3.2119269371032715
1771038055221590300,5.97459033203125,-0.9957095980644226,-5.64439058303833,2.847851514816284
1771038055240556500,5.993556640625,-1.2339468002319336,-4.102567672729492,2.190561056137085
1771038055259522800,6.012522705078125,-0.8051197528839111,-2.249204158782959,1.6896519660949707
1771038055278489000,6.031489013671875,0.07330377399921417,-1.1594213247299194,0.8747583627700806
1771038055297455600,6.05045556640625,1.2400555610656738,-0.39217519760131836,-1.138651967048645
1771038055316422000,6.069421875,2.1306962966918945,-0.6352993845939636,-2.4825544357299805
1771038055335388200,6.08838818359375,2.506989002227783,-0.08307760953903198,-1.4294235706329346
1771038055354354400,6.1073544921875,2.9883503913879395,0.48013970255851746,-1.331685185432434
1771038055373320700,6.12632080078125,3.693288564682007,0.6866120100021362,-4.535059928894043
1771038055392287000,6.145286865234375,2.4630067348480225,-2.2650866508483887,0.924849271774292
1771038055411253200,6.164253173828125,1.5332705974578857,-2.6890268325805664,2.900385856628418
1771038055430219800,6.1832197265625,1.0409135818481445,4.558272838592529,1.5809180736541748
1771038055449186000,6.20218603515625,-0.657290518283844,11.682178497314453,-0.31520622968673706
1771038055468152300,6.22115234375,-2.5827362537384033,8.040202140808105,-4.40311336517334
1771038055487118600,6.24011865234375,-4.003607749938965,5.095833778381348,-7.191100120544434
1771038055506084900,6.2590849609375,-4.663341522216797,5.017643451690674,-6.776933670043945
1771038055525051400,6.278051513671875,-4.092793941497803,1.7055344581604004,-3.0054547786712646
1771038055544017400,6.297017333984375,-3.677406072616577,-4.214966773986816,3.666410446166992
1771038055562984000,6.31598388671875,-4.508182048797607,-9.870352745056152,2.381150960922241
1771038055581950200,6.3349501953125,-3.6566364765167236,-13.285087585449219,-11.6992826461792
1771038055600916500,6.35391650390625,-0.48991355299949646,5.627286434173584,-4.522842884063721
1771038055619882800,6.3728828125,1.2266165018081665,4.913796424865723,-1.1716386079788208
1771038055638849000,6.39184912109375,1.858250617980957,0.4667007029056549,-2.3799290657043457
1771038055657815600,6.410815673828125,1.6346741914749146,-0.7721330523490906,-1.314581036567688
1771038055676781800,6.42978173828125,1.1630865335464478,-1.0604612827301025,2.193004608154297
1771038055695748000,6.448748046875,1.0189224481582642,0.5033525824546814,3.6419758796691895
1771038055714714400,6.46771435546875,1.1972949504852295,2.2821907997131348,2.4849979877471924
1771038055733680600,6.4866806640625,1.441640853881836,2.75744366645813,1.7470732927322388
1771038055752647200,6.505647216796875,1.3646719455718994,1.9437717199325562,1.7739512920379639
1771038055771613400,6.524613525390625,1.0225876569747925,-0.11972949653863907,2.288299560546875
1771038055790579700,6.543579833984375,0.5803215503692627,-2.9834635257720947,3.6444191932678223
1771038055809546000,6.5625458984375,0.5485565662384033,-4.021933555603027,4.1196722984313965
1771038055828512300,6.58151220703125,0.4508182108402252,-3.9437429904937744,4.354244232177734
1771038055847478800,6.600478759765625,0.20402882993221283,-1.4379756450653076,3.386634349822998
1771038055866445000,6.619445068359375,0.18570289015769958,2.5851798057556152,5.605295181274414
1771038055885411300,6.638411376953125,1.4648537635803223,3.6028804779052734,1.2107340097427368
1771038055904377600,6.657377685546875,1.6200133562088013,-0.07819069176912308,1.2180644273757935
1771038055923344000,6.67634375,0.5216785073280334,-4.504517078399658,2.6145012378692627
1771038055942310400,6.695310302734375,-0.4471530318260193,-5.624843120574951,2.679252862930298
1771038055961276700,6.714276611328125,-0.7977893948554993,-4.256505966186523,1.8338160514831543
1771038055980243000,6.733242919921875,-0.4276053309440613,-2.1355831623077393,0.943175196647644
1771038055999209200,6.752209228515625,0.23212862014770508,-0.28588470816612244,0.2663370370864868
1771038056018175500,6.771175537109375,1.1313215494155884,-0.05742128938436508,-0.9700532555580139
1771038056037141800,6.790141845703125,1.9278892278671265,-1.0054833889007568,-1.5198315382003784
1771038056056108300,6.8091083984375,2.0830488204956055,-0.4105011224746704,-0.5338957905769348
1771038056075074600,6.828074462890625,2.3872594833374023,0.685390293598175,-0.6585122346878052
1771038056094040800,6.847040771484375,3.2094836235046387,1.1545344591140747,-4.356687545776367
1771038056113007000,6.866007080078125,1.8032728433609009,-3.599215269088745,1.8057162761688232
1771038056131973400,6.884973388671875,0.8845322132110596,-3.375638723373413,2.6328272819519043
1771038056150940000,6.90393994140625,0.5351175665855408,5.913171291351318,1.916893720626831
1771038056169906200,6.92290625,-0.536339282989502,12.122000694274902,-0.07574722915887833
1771038056188872400,6.94187255859375,-2.238208532333374,10.059720993041992,-4.558272838592529
1771038056207838700,6.960838623046875,-4.550942420959473,6.547248840332031,-8.284547805786133
1771038056226805000,6.979804931640625,-5.342623233795166,4.948004722595215,-8.14893627166748
1771038056245771500,6.998771484375,-3.384190797805786,0.36651885509490967,-2.6059491634368896
1771038056264737800,7.01773779296875,-2.691470146179199,-4.616916179656982,4.190532207489014
1771038056283704000,7.0367041015625,-4.212523460388184,-8.130610466003418,3.115410327911377
1771038056302670300,7.05567041015625,-4.621802806854248,-10.863618850708008,-13.324182510375977
1771038056321636600,7.07463671875,-0.8808670043945312,8.829439163208008,-4.613250732421875
1771038056340603100,7.09360302734375,0.9700532555580139,6.028013706207275,-0.9077450633049011
1771038056359569400,7.1125693359375,1.2779290676116943,1.314581036567688,-1.4563016891479492
1771038056378535700,7.13153564453125,0.9944878816604614,-0.20647229254245758,-0.1649334877729416
1771038056397502000,7.150501953125,0.7550288438796997,0.4508182108402252,1.2046253681182861
1771038056416468200,7.16946826171875,0.833219587802887,3.2815656661987305,2.416581153869629
1771038056435434800,7.188434814453125,0.9175189137458801,4.495965003967285,2.2760822772979736
1771038056454401000,7.207401123046875,0.8747583627700806,3.760483503341675,2.0073015689849854
1771038056473367300,7.2263671875,0.7831286191940308,1.8729114532470703,2.1368050575256348
1771038056492333800,7.245333740234375,0.7391464114189148,-0.471587598323822,2.5912883281707764
1771038056511299800,7.2642998046875,0.7391464114189148,-2.561966896057129,3.825235366821289
1771038056530266400,7.283266357421875,0.8600975871086121,-3.400073289871216,4.388452529907227
1771038056549232600,7.302232666015625,0.8051197528839111,-4.047590255737305,4.462977886199951
1771038056568199000,7.321198974609375,0.8600975871086121,-1.0396918058395386,2.9187119007110596
1771038056587165200,7.340165283203125,1.8362594842910767,5.886292934417725,1.6517783403396606
1771038056606131500,7.35913134765625,2.6804747581481934,2.366490125656128,1.1337649822235107
1771038056634581000,7.3875810546875,0.2761108875274658,-1.4587451219558716,2.377485752105713
1771038056653547300,7.40654736328125,-1.0665699243545532,-5.463574409484863,3.8203482627868652
1771038056672513800,7.425513671875,-1.4037672281265259,-5.898510456085205,4.028042316436768
1771038056691480000,7.44447998046875,-1.0543526411056519,-4.907687664031982,3.128849506378174
1771038056710446300,7.4634462890625,-0.028099779039621353,-3.330434799194336,2.2174391746520996
1771038056729412600,7.48241259765625,1.4282019138336182,-2.193004608154297,1.3475676774978638
1771038056748379100,7.501379150390625,2.598618745803833,-1.2253947257995605,-0.6914989352226257
1771038056776828400,7.529828369140625,3.0298893451690674,-1.1215476989746094,-2.313955783843994
1771038056795794700,7.548794677734375,2.7904303073883057,-0.29443681240081787,-1.5687007904052734
1771038056814761200,7.56776123046875,3.3096654415130615,0.6707295179367065,-3.6920666694641113
1771038056833727500,7.5867275390625,2.6865832805633545,1.7788382768630981,-1.499062180519104
1771038056852693800,7.60569384765625,1.3109158277511597,-2.3005168437957764,3.1777186393737793
1771038056871660000,7.624659912109375,0.6633991599082947,0.8552106618881226,2.012188673019409
1771038056890626300,7.643626220703125,0.5302306413650513,10.583843231201172,-0.1698204129934311
1771038056909592800,7.6625927734375,-1.2461642026901245,10.859953880310059,-3.196044445037842
1771038056928559000,7.68155908203125,-3.137401580810547,6.803812026977539,-6.908880710601807
1771038056947525400,7.700525390625,-5.044521331787109,5.1007208824157715,-8.372512817382812
1771038056966491600,7.71949169921875,-5.092168807983398,2.190561056137085,-6.036565780639648
1771038056985458200,7.738458251953125,-3.5784459114074707,-3.8789913654327393,1.0225876569747925
1771038057004424400,7.757424560546875,-5.141037940979004,-7.7274394035339355,6.087878227233887
1771038057023390700,7.776390625,-7.114131450653076,-18.021732330322266,-3.3988516330718994
1771038057042357000,7.79535693359375,-1.8545855283737183,-2.392146587371826,-7.919250965118408
1771038057061323300,7.8143232421875,1.5100576877593994,6.9198760986328125,-2.889390468597412
1771038057080289500,7.83328955078125,2.2626430988311768,1.821598768234253,-2.381150960922241
1771038057099256000,7.852256103515625,1.8093814849853516,-0.5106829404830933,-1.802051067352295
1771038057118222300,7.871222412109375,1.25715970993042,-0.370184063911438,0.06719512492418289
1771038057137188600,7.890188720703125,1.1068869829177856,0.5656607747077942,2.6022839546203613
1771038057156155100,7.909155029296875,1.3976585865020752,1.8435899019241333,3.3854126930236816
1771038057175121400,7.928121337890625,1.7263038158416748,2.6047275066375732,2.481332778930664
1771038057194087700,7.947087646484375,1.802051067352295,2.505767345428467,1.877798318862915
1771038057213054000,7.966053955078125,1.5296053886413574,1.546709656715393,1.8240422010421753
1771038057232020200,7.985020263671875,0.9468404054641724,-0.7428115606307983,2.956585645675659
1771038057250986800,8.00398681640625,0.7367029190063477,-2.1636829376220703,3.758040189743042
1771038057269953000,8.022953125,0.831997811794281,-2.933372735977173,4.261392593383789
1771038057288919300,8.041919189453125,0.8833104968070984,-1.997527837753296,3.8985390663146973
1771038057307885600,8.060885498046876,0.3237583339214325,-0.3433060050010681,5.34751033782959
1771038057326851800,8.079851806640624,-0.01954767294228077,0.6010909676551819,6.145299911499023
1771038057345818400,8.098818359375,0.8735366463661194,1.8228205442428589,1.2461642026901245
1771038057364784600,8.11778466796875,0.831997811794281,-2.0329580307006836,2.467893600463867
1771038057383751000,8.1367509765625,-0.4874700903892517,-6.035344123840332,4.290714263916016
1771038057402717200,8.15571728515625,-1.0189224481582642,-4.735423564910889,3.0799801349639893
1771038057421683500,8.174683349609374,-0.5106829404830933,-3.180161952972412,1.673769474029541
1771038057440650000,8.19364990234375,0.27488914132118225,-2.0573925971984863,0.8723149299621582
1771038057459616300,8.2126162109375,1.1545344591140747,-1.2608249187469482,-0.08429934084415436
1771038057478582500,8.23158251953125,2.123365879058838,-0.2993237376213074,-1.5308271646499634
1771038057497548800,8.250548828125,2.2027783393859863,-0.7000510096549988,-1.7666209936141968
1771038057516515000,8.26951513671875,1.740964651107788,0.38240134716033936,-0.9737184643745422
1771038057535481600,8.288481689453125,1.8668028116226196,2.7317872047424316,-3.595550060272217
1771038057554448000,8.30744775390625,1.9107850790023804,3.3902995586395264,-4.574155330657959
1771038057573414100,8.3264140625,0.5326740741729736,-1.9144501686096191,2.0806055068969727
1771038057592380400,8.34538037109375,-0.2419024556875229,-2.553414821624756,1.860694169998169
1771038057611346700,8.3643466796875,-0.1637117564678192,6.688969135284424,0.43493571877479553
1771038057630313000,8.38331298828125,-1.2388337850570679,13.013863563537598,-0.7770199775695801
1771038057649279500,8.402279541015625,-2.6389358043670654,8.28576946258545,-3.727496862411499
1771038057668245800,8.421245849609376,-3.825235366821289,3.1862707138061523,-6.494714260101318
1771038057687212000,8.4402119140625,-3.944964647293091,1.8826853036880493,-7.126348495483398
1771038057706178300,8.45917822265625,-2.4801111221313477,-0.08918625861406326,-3.968177556991577
1771038057725144600,8.47814453125,-2.8234169483184814,-2.525315046310425,1.1899645328521729
1771038057744110800,8.49711083984375,-4.462977886199951,-6.684082508087158,1.6383392810821533
1771038057763077400,8.516077392578126,-4.539947032928467,-13.595406532287598,-11.578330993652344
1771038057782043600,8.535043701171874,-1.1215476989746094,5.130042552947998,-4.561938285827637
1771038057801010000,8.554010009765625,0.8454368710517883,5.479456901550293,-1.4636319875717163
1771038057819976200,8.57297607421875,1.469740629196167,1.8154901266098022,-1.944993495941162
1771038057838942500,8.5919423828125,1.2913681268692017,0.2101374864578247,-0.07086031138896942
1771038057857909000,8.610908935546876,0.9712749719619751,0.06719512492418289,2.663370370864868
1771038057876875300,8.629875244140624,0.9822705388069153,1.4966187477111816,3.2901177406311035
1771038057895841500,8.648841552734375,1.1081087589263916,2.3017385005950928,1.9559890031814575
1771038057914807800,8.667807861328125,1.2315033674240112,2.1502439975738525,1.2437206506729126
1771038057933774000,8.686774169921875,1.1325433254241943,1.2400555610656738,1.9669846296310425
1771038057952740600,8.70574072265625,0.9126319885253906,-0.3494146466255188,3.682292938232422
1771038057971707000,8.724706787109374,0.9370665550231934,-1.9401065111160278,4.464200019836426
1771038057990673200,8.743673095703125,0.8698714375495911,-3.143510103225708,4.679224014282227
1771038058009639400,8.762639404296875,0.5913171172142029,-1.5638138055801392,4.337140083312988
1771038058028605700,8.781605712890626,1.255937933921814,6.649874210357666,3.6786277294158936
1771038058047572000,8.800572021484374,2.73545241355896,4.1648759841918945,0.44348782300949097
1771038058066538200,8.819538330078124,2.687804937362671,1.0861176252365112,1.654221773147583
1771038058085504800,8.8385048828125,0.7611374855041504,-3.3487606048583984,3.266904830932617
1771038058104471000,8.857470947265625,-0.6902772188186646,-7.149561405181885,4.602255344390869
1771038058123437300,8.876437255859376,-1.0555742979049683,-6.10864782333374,3.973064422607422
1771038058142403600,8.895403564453124,-1.1081087589263916,-4.481304168701172,2.913825035095215
1771038058161369900,8.914369873046875,-0.34086254239082336,-3.4880378246307373,2.1807873249053955
1771038058180336000,8.933336181640625,1.1728603839874268,-2.0378448963165283,1.0054833889007568
1771038058199302700,8.952302734375,3.0946409702301025,-0.546113133430481,-1.9950844049453735
1771038058218269000,8.97126904296875,4.282162189483643,-0.9321796298027039,-2.5387539863586426
1771038058237235200,8.990235107421874,4.162432670593262,-1.7397428750991821,-1.6029092073440552
1771038058256201500,9.009201416015625,4.475195407867432,1.820376992225647,-4.136776447296143
1771038058275167700,9.028167724609375,3.2754569053649902,2.294408082962036,-2.3396120071411133
1771038058294134000,9.047134033203125,0.8063415288925171,-2.10992693901062,2.894277334213257
1771038058313100500,9.0661005859375,-0.42271843552589417,0.6010909676551819,1.525940179824829
1771038058332066800,9.08506689453125,-1.053130865097046,9.33034896850586,0.13439024984836578
1771038058351033000,9.104033203125,-2.3591597080230713,10.275967597961426,-1.896124243736267
1771038058369999400,9.122999267578125,-4.0805768966674805,6.519148826599121,-5.404931545257568
1771038058388965600,9.141965576171875,-5.272984981536865,4.228405952453613,-6.972410678863525
1771038058407932000,9.160931884765626,-4.453204154968262,2.1368050575256348,-5.847197532653809
1771038058426898200,9.179898193359374,-2.5851798057556152,-1.8093814849853516,-2.036623239517212
1771038058445864400,9.198864501953125,-3.453829526901245,-4.6706719398498535,1.6798781156539917
1771038058464831000,9.2178310546875,-6.72806453704834,-16.33696746826172,-4.900357246398926
1771038058483797200,9.23679736328125,-3.1752750873565674,-2.2137739658355713,-4.266279697418213
1771038058502763500,9.255763427734376,0.43982264399528503,4.753749847412109,-2.1636829376220703
1771038058521729800,9.274729736328124,1.2705987691879272,2.7195699214935303,-3.7910268306732178
1771038058540696000,9.293696044921875,1.0348049402236938,2.6804747581481934,-2.852738618850708
1771038058559662300,9.312662353515625,0.8918625712394714,2.548527956008911,0.4056142270565033
1771038058578628600,9.331628662109376,0.9969313144683838,0.6768381595611572,2.5912883281707764
1771038058597595100,9.35059521484375,1.2107340097427368,0.024434590712189674,2.7733261585235596
1771038058616561400,9.3695615234375,1.488066554069519,1.1423171758651733,2.1917827129364014
1771038058635527700,9.388527587890625,1.5552617311477661,1.2986985445022583,1.6212351322174072
1771038058654494000,9.407493896484375,1.361006736755371,0.9040798544883728,1.7434080839157104
1771038058673460200,9.426460205078126,0.9761618971824646,-0.09529490768909454,3.154505729675293
1771038058692426500,9.445426513671874,0.8710931539535522,-1.6896519660949707,4.445873737335205
1771038058711392800,9.464392822265625,0.8674280047416687,-2.8845036029815674,4.899135589599609
1771038058730359000,9.483359130859375,0.6927206516265869,-2.4068071842193604,4.390895843505859
1771038058749325300,9.5023251953125,0.5131264328956604,5.497783184051514,4.933343887329102
1771038058768291800,9.521291748046876,1.507614254951477,4.159989356994629,1.9462151527404785
1771038058787258000,9.540258056640624,2.2919647693634033,1.3744457960128784,1.4929535388946533
1771038058806224400,9.559224365234375,0.4007273018360138,-2.164904832839966,3.4965898990631104
1771038058825190700,9.578190673828125,-1.1349867582321167,-6.957749843597412,5.30963659286499
1771038058844157000,9.597156982421875,-1.693317174911499,-5.688372611999512,4.002386093139648
1771038058863123200,9.616123291015626,-1.0128138065338135,-3.8545567989349365,3.098306179046631
1771038058882089500,9.63508935546875,-0.09407317638397217,-2.9468116760253906,2.2956297397613525
1771038058901055700,9.6540556640625,1.0873392820358276,-1.9853105545043945,0.5119046568870544
1771038058920022000,9.67302197265625,2.9492552280426025,-0.39217519760131836,-1.489288330078125
1771038058938988300,9.69198828125,4.045146465301514,-0.059864748269319534,-2.193004608154297
1771038058957954800,9.710954833984376,3.875326156616211,-0.5900954008102417,-1.2901464700698853
1771038058976921000,9.729921142578124,3.654193162918091,1.2974767684936523,-3.964512348175049
1771038058995887400,9.748887451171875,3.182605504989624,0.7794634699821472,-5.3523969650268555
1771038059014853600,9.767853515625,0.8796452879905701,-4.553386211395264,2.4214680194854736
1771038059033820000,9.78681982421875,-0.4166097939014435,-2.9578073024749756,2.7281219959259033
1771038059052786200,9.8057861328125,-0.6731730103492737,7.235082626342773,0.8991929292678833
1771038059071752400,9.82475244140625,-1.7482949495315552,14.950304985046387,-0.7171552777290344
1771038059090718700,9.84371875,-3.109301805496216,9.380439758300781,-4.318813800811768
1771038059109685000,9.86268505859375,-4.602255344390869,3.9388561248779297,-7.342594623565674
1771038059128651300,9.8816513671875,-4.616916179656982,1.2620465755462646,-7.870381832122803
1771038059147617500,9.900617431640624,-2.7696609497070312,-1.907119870185852,-3.9974992275238037
1771038059166583800,9.919583740234375,-2.9431464672088623,-3.0078980922698975,2.0378448963165283
1771038059185550300,9.93855029296875,-5.33162784576416,-5.560091018676758,2.5827362537384033
1771038059204516600,9.9575166015625,-4.769632339477539,-13.487894058227539,-9.915556907653809
1771038059223483000,9.97648291015625,-0.2932150959968567,4.834383964538574,-3.849669933319092
1771038059242449200,9.99544921875,1.693317174911499,4.803840637207031,-2.4287984371185303
1771038059261415400,10.01441552734375,1.7140865325927734,1.7189735174179077,-3.456272840499878
1771038059280381700,10.033381591796875,1.1850776672363281,0.7440332770347595,-1.489288330078125
1771038059299348000,10.052347900390625,0.9126319885253906,0.050090912729501724,2.0525057315826416
1771038059318314200,10.071314208984376,0.9358448386192322,0.002443459117785096,3.453829526901245
1771038059337280500,10.090280517578124,1.2107340097427368,1.517388105392456,2.2149956226348877
1771038059356246800,10.109246826171875,1.546709656715393,2.6670355796813965,1.0372483730316162
1771038059375213000,10.128213134765625,1.5540399551391602,2.7281219959259033,0.972496747970581
1771038059394179300,10.147179443359375,1.2925899028778076,1.2327251434326172,2.204000234603882
1771038059413145600,10.1661455078125,1.1435388326644897,-0.8564324378967285,3.495368242263794
1771038059432111900,10.18511181640625,1.158199667930603,-2.1856741905212402,4.299266338348389
1771038059451078100,10.204078125,1.1252129077911377,-1.8826853036880493,4.502073287963867
1771038059470044400,10.22304443359375,0.2577849328517914,0.7733548283576965,3.0335545539855957
1771038059489010700,10.2420107421875,0.7806851863861084,3.386634349822998,4.166097640991211
1771038059507977000,10.26097705078125,2.6132795810699463,1.5968005657196045,1.5332705974578857
1771038059526943200,10.279943115234374,1.265711784362793,-1.8106032609939575,2.4825544357299805
1771038059545909500,10.298909423828125,-0.44837474822998047,-6.455618858337402,4.951669692993164
1771038059564876000,10.3178759765625,-1.2730422019958496,-5.95104455947876,4.656011581420898
1771038059583842000,10.336842041015625,-0.9419534802436829,-4.166097640991211,3.3206608295440674
1771038059602808600,10.35580859375,-0.4471530318260193,-3.4440555572509766,2.800204038619995
1771038059621774600,10.374774658203124,0.831997811794281,-2.400698661804199,2.0341796875
1771038059640740900,10.393740966796875,2.9626941680908203,-0.39828383922576904,-1.2596031427383423
1771038059659707100,10.41270703125,4.249175548553467,-0.7428115606307983,-2.455676317214966
1771038059678673700,10.431673583984375,4.38112211227417,-1.8435899019241333,-1.0958913564682007
1771038059697640000,10.450639892578126,4.386009216308594,1.3744457960128784,-4.158767223358154
1771038059716606200,10.469606201171874,3.764148712158203,1.7104213237762451,-4.511847496032715
1771038059735572500,10.488572509765625,0.9517273306846619,-5.013978004455566,2.500880479812622
1771038059754538800,10.507538818359375,-1.0201442241668701,-3.3512041568756104,2.4568982124328613
1771038059773505000,10.526505126953126,-1.5711442232131958,7.507528305053711,0.748920202255249
1771038059792471300,10.54547119140625,-2.52042818069458,14.818357467651367,-1.0152572393417358
1771038059811437600,10.5644375,-3.5637850761413574,8.863648414611816,-5.409818649291992
1771038059830403800,10.58340380859375,-4.767188549041748,4.472752094268799,-8.321200370788574
1771038059849370000,10.6023701171875,-4.09645938873291,2.3396120071411133,-7.616261959075928
1771038059868336400,10.62133642578125,-1.635895848274231,-1.654221773147583,-2.3787074089050293
1771038059887302400,10.640302490234374,-2.5302019119262695,-3.593106746673584,3.4220645427703857
1771038059906269000,10.65926904296875,-5.856971740722656,-9.480621337890625,-0.12461641430854797
1771038059925235200,10.678235107421875,-4.199084281921387,-8.913739204406738,-10.317505836486816
1771038059944201500,10.697201416015625,-0.13194678723812103,6.614443778991699,-2.629162073135376
1771038059963167700,10.716167724609376,1.4758492708206177,4.73786735534668,-2.1978914737701416
1771038059982133800,10.7351337890625,1.433088779449463,1.9755367040634155,-2.2809691429138184
1771038060001100000,10.75410009765625,1.2156208753585815,0.5668824911117554,-0.16126830875873566
1771038060020066300,10.77306640625,1.0604612827301025,-0.47525280714035034,2.153909206390381
1771038060039032600,10.792032470703125,0.9993748068809509,0.03176496922969818,2.690248489379883
1771038060057998800,10.810998779296876,1.1704169511795044,1.4367539882659912,1.9144501686096191
1771038060076965000,10.829965087890624,1.37078058719635,1.9095633029937744,1.3267983198165894
1771038060095931400,10.848931396484375,1.3206896781921387,1.6126830577850342,1.3781108856201172
1771038060114897700,10.867897705078125,1.0861176252365112,0.6719512343406677,2.318842649459839
1771038060133864000,10.886864013671875,0.9358448386192322,-0.9553925395011902,3.6444191932678223
1771038060152830200,10.905830322265626,1.061682939529419,-2.3701553344726562,4.370126724243164
1771038060171796500,10.92479638671875,0.9541707634925842,-2.5607452392578125,4.67189359664917
1771038060190762800,10.9437626953125,0.5986474752426147,1.907119870185852,2.9883503913879395
1771038060209729000,10.96272900390625,1.7140865325927734,4.774518966674805,2.7879867553710938
1771038060228695300,10.9816953125,2.9797983169555664,1.9645410776138306,0.9480621218681335
1771038060247661600,11.00066162109375,1.117882490158081,-1.665217399597168,2.7928738594055176
1771038060266627800,11.0196279296875,-0.7134900689125061,-6.831911563873291,5.021308422088623
1771038060285594000,11.038593994140625,-1.8472551107406616,-6.8526811599731445,4.751306056976318
1771038060304560400,11.057560302734375,-1.7947207689285278,-5.219228744506836,3.7763659954071045
1771038060323526700,11.076526611328125,-0.6621774435043335,-3.6749625205993652,3.2485787868499756
1771038060342493000,11.095492919921876,1.1068869829177856,-1.5577051639556885,1.7788382768630981
1771038060361459200,11.114459228515624,3.236361503601074,0.024434590712189674,-1.868024468421936
1771038060380425200,11.13342529296875,4.612029075622559,-0.4630354940891266,-1.9645410776138306
1771038060399391500,11.1523916015625,4.7708539962768555,-0.2003636509180069,-1.2082905769348145
1771038060418357800,11.171357666015625,4.201528072357178,2.720791816711426,-5.141037940979004
1771038060437324000,11.190323974609376,3.5112507343292236,-2.6926920413970947,-4.0194902420043945
1771038060456290300,11.209290283203124,1.7238603830337524,-6.954084873199463,1.5234967470169067
1771038060475256600,11.228256591796875,0.5937605500221252,-4.427547931671143,2.064723014831543
1771038060494222800,11.247222900390625,-0.12583814561367035,3.428173065185547,0.8307760953903198
1771038060513189000,11.266189208984375,-1.0470222234725952,13.621063232421875,-0.1795942485332489
1771038060532155400,11.2851552734375,-2.142913579940796,12.961328506469727,-3.7067275047302246
1771038060551121700,11.30412158203125,-4.037816047668457,7.254630088806152,-8.684053421020508
1771038060570088000,11.323087890625,-4.433656692504883,4.695106506347656,-8.488576889038086
1771038060589054200,11.34205419921875,-2.4129159450531006,-0.41905322670936584,-2.1868958473205566
1771038060608020200,11.361020263671875,-3.2168140411376953,-4.129446029663086,4.244288444519043
1771038060626986500,11.379986572265626,-5.060403823852539,-7.334042549133301,3.4183993339538574
1771038060645952800,11.398952880859374,-4.6340203285217285,-11.313215255737305,-13.557533264160156
1771038060664919000,11.4179189453125,-0.8026763200759888,9.009034156799316,-6.407971382141113
1771038060683885300,11.43688525390625,1.7788382768630981,6.505710124969482,-0.8466585874557495
1771038060702851600,11.4558515625,2.218660831451416,0.813671886920929,-1.4453060626983643
1771038060721817900,11.47481787109375,1.9205588102340698,-0.6084213256835938,-0.17715078592300415
1771038060740784000,11.4937841796875,1.5638138055801392,-1.2327251434326172,1.334128737449646
1771038060759750400,11.51275048828125,1.4367539882659912,0.29565855860710144,3.165501356124878
1771038060778716400,11.53171630859375,1.5503748655319214,1.4624103307724,2.6426010131835938
1771038060797682700,11.5506826171875,1.626121997833252,1.7898337841033936,2.0720534324645996
1771038060816649000,11.56964892578125,1.5100576877593994,1.5674790143966675,1.987753987312317
1771038060835615200,11.588615234375,1.2705987691879272,0.328645259141922,2.720791816711426
1771038060854581500,11.60758154296875,1.0299180746078491,-1.5858049392700195,4.059807300567627
1771038060873547800,11.6265478515625,1.0128138065338135,-2.494771718978882,4.557051181793213
1771038060892514000,11.64551416015625,0.916297197341919,-1.7360776662826538,4.214966773986816
1771038060911480000,11.66447998046875,0.8258891701698303,0.36651885509490967,4.533838272094727
1771038060930446300,11.6834462890625,2.079383611679077,2.149022340774536,4.189310550689697
1771038060949412600,11.70241259765625,2.0402884483337402,1.7446298599243164,1.352454662322998
1771038060968379000,11.72137890625,0.30054548382759094,-3.356091022491455,3.05432391166687
1771038060987345200,11.74034521484375,-1.2608249187469482,-7.414676666259766,4.244288444519043
1771038061006311400,11.7593115234375,-1.8167119026184082,-6.558244228363037,3.6615235805511475
1771038061025277700,11.778277587890624,-1.6200133562088013,-4.588816165924072,2.7598869800567627
1771038061044243700,11.79724365234375,-0.44348782300949097,-2.746448040008545,2.2088871002197266
1771038061063210000,11.8162099609375,1.3500111103057861,-1.2058470249176025,0.1331685185432434
1771038061082176300,11.83517626953125,3.112967014312744,0.5009090900421143,-2.408029079437256
1771038061101142500,11.854142578125,3.8594436645507812,0.8881973624229431,-2.355494499206543
1771038061120108800,11.87310888671875,3.7458229064941406,1.1423171758651733,-2.145357131958008
1771038061139075000,11.892074951171875,3.5784459114074707,2.081827163696289,-4.912574768066406
1771038061158041000,11.911041015625,2.548527956008911,-2.6193881034851074,-2.0268492698669434
1771038061177007400,11.93000732421875,0.7892373204231262,-7.663909435272217,3.109301805496216
1771038061195973600,11.9489736328125,-0.04153880476951599,-1.137430191040039,2.2675299644470215
1771038061214940000,11.96793994140625,-0.8393282294273376,12.78295612335205,-0.03298669680953026
1771038061243389200,11.99638916015625,-2.878394842147827,9.885013580322266,-6.6572041511535645
1771038061262355500,12.01535546875,-3.892430305480957,5.962040424346924,-9.043242454528809
1771038061281321700,12.03432177734375,-4.102567672729492,3.944964647293091,-7.5649495124816895
1771038061300288000,12.0532880859375,-2.891833782196045,-0.2993237376213074,-1.0763437747955322
1771038061319254000,12.07225390625,-3.19970965385437,-4.017046928405762,4.951669692993164
1771038061338220300,12.09122021484375,-4.072024822235107,-6.93942403793335,2.103818416595459
1771038061357186600,12.1101865234375,-2.9736897945404053,-11.309550285339355,-14.407856941223145
1771038061376152800,12.12915283203125,-0.6059778332710266,6.3358893394470215,-4.831940174102783
1771038061395119000,12.148119140625,0.9761618971824646,5.687150955200195,-0.33719736337661743
1771038061414085000,12.167085205078125,1.9584324359893799,3.341430425643921,-0.41416633129119873
1771038061433051400,12.186051513671876,2.388481378555298,2.045175313949585,0.6524035930633545
1771038061452017700,12.205017578125,2.4104723930358887,-0.2101374864578247,1.352454662322998
1771038061470984000,12.22398388671875,2.3628249168395996,-0.7953459620475769,3.2339181900024414
1771038061489950000,12.242949951171875,2.2919647693634033,0.27488914132118225,3.017672061920166
1771038061518399500,12.2713994140625,2.0598361492156982,0.5326740741729736,2.168570041656494
1771038061537365500,12.290365478515625,1.7544035911560059,0.1795942485332489,1.8338160514831543
1771038061556331800,12.309331787109375,1.3744457960128784,-1.2901464700698853,2.6083927154541016
1771038061575298000,12.328298095703126,1.0152572393417358,-2.7977607250213623,3.979173183441162
1771038061594264300,12.347264404296874,0.4202749729156494,-2.64382266998291,5.165472507476807
1771038061613230300,12.366230224609374,0.05253437161445618,-0.8026763200759888,4.431212902069092
1771038061632196600,12.385196533203125,2.505767345428467,3.6957318782806396,6.806255340576172
1771038061651163000,12.404162841796875,2.1832306385040283,3.156949281692505,1.5149446725845337
1771038061670129200,12.423129150390626,0.8564324378967285,-1.7495167255401611,1.9181153774261475
1771038061689095200,12.44209521484375,-0.8063415288925171,-7.1068010330200195,3.5527894496917725
1771038061708061400,12.4610615234375,-1.8704679012298584,-6.681639194488525,2.7366743087768555
1771038061727027700,12.48002783203125,-2.2736387252807617,-4.995652198791504,1.5845832824707031
1771038061745994000,12.498993896484375,-1.7348560094833374,-3.3438737392425537,1.37078058719635
1771038061764960000,12.5179599609375,-0.15149445831775665,-2.1551308631896973,0.7623592615127563
1771038061783926300,12.53692626953125,1.7678426504135132,-0.6120865345001221,-1.2058470249176025
1771038061802892500,12.555892578125,2.867399215698242,0.42271843552589417,-2.0781619548797607
1771038061821858800,12.57485888671875,3.051880359649658,1.1948515176773071,-2.12580943107605
1771038061840824800,12.593824951171875,2.97857666015625,3.469712018966675,-4.88325309753418
1771038061859791000,12.612791015625,2.894277334213257,-1.6810998916625977,-4.577820777893066
1771038061878757400,12.63175732421875,1.7250821590423584,-6.596117973327637,0.9492838382720947
1771038061897723400,12.650723388671874,0.8161153197288513,-6.665756702423096,2.1025965213775635
1771038061916689700,12.669689697265625,0.3176496922969818,1.8533637523651123,1.2596031427383423
1771038061935656000,12.688656005859375,-0.6499601006507874,14.046224594116211,-0.27977606654167175
1771038061954622200,12.707622314453126,-2.42268967628479,13.931382179260254,-4.227184295654297
1771038061973588200,12.726588134765626,-4.166097640991211,7.804408550262451,-8.735366821289062
1771038061992554500,12.745554443359374,-4.423882961273193,4.342026710510254,-8.246674537658691
1771038062011520800,12.764520751953125,-2.25531268119812,0.5009090900421143,-1.9413282871246338
1771038062030486800,12.78348681640625,-2.1917827129364014,-3.204596519470215,4.484969139099121
1771038062049453000,12.802453125,-3.050658702850342,-6.113534927368164,3.2400267124176025
1771038062068419300,12.82141943359375,-3.6309802532196045,-6.184394836425781,-13.184905052185059
1771038062087385600,12.840385498046874,-1.5687007904052734,5.172802925109863,-9.116545677185059
1771038062115835000,12.8688349609375,0.7929024696350098,4.064694404602051,0.8698714375495911
1771038062134801000,12.88780078125,1.4282019138336182,2.4153592586517334,0.25534147024154663
1771038062153767200,12.90676708984375,1.525940179824829,0.6695078015327454,0.6707295179367065
1771038062172733400,12.9257333984375,1.3854413032531738,0.04153880476951599,2.0402884483337402
1771038062191699500,12.944699462890625,1.265711784362793,1.0665699243545532,3.5747807025909424
1771038062210665700,12.963665771484376,1.2131774425506592,1.5577051639556885,2.8869469165802
1771038062229632000,12.982632080078124,1.1215476989746094,0.6646208763122559,2.2846343517303467
1771038062248598300,13.001598388671875,0.8698714375495911,-1.156977891921997,2.6279401779174805
1771038062267564300,13.020564208984375,0.7122683525085449,-3.051880359649658,4.283383846282959
1771038062286530600,13.039530517578125,0.6695078015327454,-4.130667686462402,4.607141971588135
1771038062305496600,13.05849658203125,0.4508182108402252,-4.421439170837402,4.42510461807251
1771038062324462800,13.077462890625,1.0873392820358276,3.9461865425109863,5.744572162628174
1771038062343429000,13.09642919921875,2.3090689182281494,7.731104850769043,1.480736255645752
1771038062362395100,13.11539501953125,2.182008981704712,0.38240134716033936,1.674991250038147
1771038062381361400,13.134361328125,0.5619956254959106,-3.271791696548462,3.582111120223999
1771038062400327700,13.15332763671875,-1.3695588111877441,-7.330377578735352,4.181980133056641
1771038062419293700,13.172293701171874,-2.2394301891326904,-6.840463638305664,3.132514476776123
1771038062438260000,13.191260009765625,-2.1306962966918945,-4.863705158233643,2.7232351303100586
1771038062457226200,13.210226318359375,-1.1679733991622925,-2.733009099960327,2.7586653232574463
1771038062476192300,13.229192138671875,0.9040798544883728,-1.2620465755462646,1.461188554763794
1771038062495158500,13.248158447265626,3.196044445037842,-0.001221729558892548,-2.218660831451416
1771038062514124800,13.267124755859374,4.6877760887146,-0.8222240209579468,-3.034776210784912
1771038062533090800,13.2860908203125,5.060403823852539,-0.7513636946678162,-2.830747365951538
1771038062552057000,13.30505712890625,4.872257709503174,2.9345943927764893,-5.9840312004089355
1771038062571023400,13.3240234375,4.039037704467773,-2.0525057315826416,-3.931525707244873
1771038062589989400,13.3429892578125,2.322507858276367,-6.855124473571777,1.3952151536941528
1771038062608955600,13.36195556640625,0.7159335017204285,-5.34751033782959,1.6969823837280273
1771038062627921700,13.380921630859374,-0.20647229254245758,6.035344123840332,0.9908226728439331
1771038062646888000,13.399887939453125,-1.8167119026184082,16.600860595703125,-0.38728827238082886
1771038062665854200,13.418854248046875,-3.5417940616607666,13.425585746765137,-4.858818531036377
1771038062684820200,13.4378203125,-5.133707523345947,7.167887210845947,-7.6883440017700195
1771038062703786500,13.456786376953126,-4.302931308746338,2.129474639892578,-5.47701358795166
1771038062722752800,13.475752685546874,-3.0640976428985596,-2.559523344039917,0.6120865345001221
1771038062741718800,13.49471875,-4.207636833190918,-4.9858784675598145,4.36523962020874
1771038062760685000,13.51368505859375,-4.583929538726807,-7.081144332885742,-2.0769402980804443
1771038062779651000,13.532651123046875,-3.277900457382202,-3.3902995586395264,-14.786592483520508
1771038062798617300,13.551617431640626,-0.5619956254959106,8.210022926330566,-2.6560399532318115
1771038062817583600,13.57058349609375,1.1362085342407227,4.238179683685303,0.24801109731197357
1771038062836549600,13.589549560546875,1.3744457960128784,1.1997383832931519,-0.05864302068948746
1771038062855516000,13.608515869140625,1.196073293685913,-0.10629047453403473,1.0262528657913208
1771038062874482200,13.627482177734375,1.033583164215088,0.943175196647644,2.6059491634368896
1771038062893448200,13.6464482421875,1.0775654315948486,2.067166328430176,2.819751739501953
1771038062912414500,13.66541455078125,1.255937933921814,2.1563527584075928,2.3237295150756836
1771038062931380500,13.68438037109375,1.351232886314392,1.3988803625106812,2.1526875495910645
1771038062950346800,13.7033466796875,1.3267983198165894,0.09285144507884979,2.553414821624756
1771038062969312800,13.722312744140625,1.4404191970825195,-1.5589269399642944,4.605920314788818
1771038062988279000,13.741279052734376,1.5833615064620972,-2.570518970489502,4.730536937713623
1771038063007245300,13.760245361328124,1.7348560094833374,-3.654193162918091,4.601033687591553
1771038063026211300,13.77921142578125,2.321286201477051,0.5790998339653015,2.640157461166382
1771038063045177600,13.798177490234375,3.3145523071289062,6.44951057434082,1.4294235706329346
1771038063064143600,13.8171435546875,2.866177558898926,1.2718204259872437,1.6249003410339355
1771038063083110000,13.83610986328125,0.554665207862854,-2.360381603240967,2.544862747192383
1771038063102076000,13.855075927734376,-1.4672971963882446,-7.023723125457764,4.0500335693359375
1771038063121042200,13.874042236328124,-2.175900459289551,-7.746987342834473,4.105011463165283
1771038063140008400,13.893008544921875,-2.0525057315826416,-6.521592617034912,3.434281826019287
1771038063158974500,13.911974365234375,-1.1056652069091797,-4.170984745025635,3.1496188640594482
1771038063177940700,13.930940673828125,0.9175189137458801,-1.9914191961288452,2.1612396240234375
1771038063196906800,13.94990673828125,3.2204790115356445,-0.2626718580722809,-1.166751742362976
1771038063215873000,13.968873046875,4.454425811767578,-0.49480047821998596,-3.078758478164673
1771038063234839000,13.987839111328125,4.890583515167236,-1.3060288429260254,-2.079383611679077
1771038063253805300,14.006805419921875,5.265654563903809,0.13194678723812103,-2.9468116760253906
1771038063272771600,14.025771484375,5.048186302185059,-2.064723014831543,-5.49900484085083
1771038063291737600,14.044737548828126,3.423286199569702,-6.007244110107422,-1.4868448972702026
1771038063310703900,14.063703857421874,0.9737184643745422,-7.623592376708984,0.46425724029541016
1771038063329670000,14.082669921875,-0.7147117853164673,0.09285144507884979,0.22479823231697083
1771038063348636200,14.10163623046875,-1.9535455703735352,13.051736831665039,0.07941242307424545
1771038063367602200,14.120602294921875,-3.3512041568756104,18.079153060913086,-0.544891357421875
1771038063386568400,14.139568359375,-4.690219879150391,10.327280044555664,-4.648681163787842
1771038063405534500,14.158534423828126,-5.114160060882568,2.6804747581481934,-7.771421909332275
1771038063424500700,14.177500732421874,-2.989572286605835,-2.8319690227508545,-6.601004600524902
1771038063443466800,14.196466796875,-1.4636319875717163,-4.966330528259277,0.2981020212173462
1771038063462433000,14.21543310546875,-3.2485787868499756,-3.3231043815612793,2.3567163944244385
1771038063481399000,14.23439892578125,-3.5222463607788086,-2.6474878787994385,-2.221104383468628
1771038063500365300,14.253365234375,-2.7782130241394043,-0.7269290685653687,-15.06636905670166
1771038063519331300,14.272331298828124,-0.4569268524646759,6.685304164886475,-2.503323793411255
1771038063538297600,14.291297607421875,1.0054833889007568,5.101942539215088,1.1496474742889404
1771038063557263600,14.310263671875,1.4001020193099976,1.4734058380126953,0.9908226728439331
1771038063576230000,14.32922998046875,1.321911334991455,-1.2180644273757935,1.186299443244934
1771038063595196000,14.34819580078125,1.2046253681182861,-0.554665207862854,3.8008005619049072
1771038063614162200,14.367162109375,1.1410953998565674,0.6462949514389038,3.4464991092681885
1771038063633128200,14.386128173828125,1.099556565284729,0.9688315391540527,2.5155410766601562
1771038063652094500,14.405094482421875,0.9517273306846619,0.5888736248016357,2.001193046569824
1771038063671060500,14.424060546875,0.6438514590263367,-0.7476984858512878,3.04821515083313
1771038063690026800,14.44302685546875,0.3433060050010681,-2.6035056114196777,5.054295063018799
1771038063708992800,14.46199267578125,-0.04764745384454727,-3.6199846267700195,5.441583633422852
1771038063727959000,14.480958984375,-0.43004879355430603,-2.0598361492156982,4.753749847412109
1771038063746925000,14.499925048828125,1.4098758697509766,5.937605857849121,4.868592262268066
1771038063765891300,14.518891357421875,3.794692039489746,3.819126605987549,1.4098758697509766
1771038063784857300,14.537857421875,1.7055344581604004,-0.10384701192378998,2.2956297397613525
1771038063803823600,14.55682373046875,-0.8063415288925171,-5.48678731918335,4.183201789855957
1771038063822789600,14.57578955078125,-2.118479013442993,-7.147118091583252,4.495965003967285
1771038063841756000,14.594755859375,-2.0268492698669434,-5.968148708343506,3.616319417953491
1771038063860722000,14.613721923828125,-1.3158026933670044,-3.576002359390259,3.045771837234497
1771038063879688200,14.632688232421875,-0.16615521907806396,-1.656665325164795,2.13191819190979
1771038063898654200,14.651654296875,1.8619158267974854,0.5045742988586426,-1.51616632938385
1771038063917620500,14.670620361328124,3.450164318084717,0.6939423680305481,-4.246731758117676
1771038063936586500,14.68958642578125,4.141663074493408,-0.6511818766593933,-3.0225589275360107
1771038063955552500,14.708552490234375,4.327365875244141,-0.23212862014770508,-2.8539602756500244
1771038063974518800,14.727518798828125,3.953516960144043,-0.48013970255851746,-4.511847496032715
1771038063993484800,14.74648486328125,3.084867238998413,-2.204000234603882,-0.8063415288925171
1771038064012451000,14.765451171875,1.4208714962005615,-7.418342113494873,2.4190244674682617
1771038064031417000,14.7844169921875,0.19181154668331146,-4.357909202575684,1.6346741914749146
1771038064050383400,14.80338330078125,-0.5803215503692627,7.4366679191589355,-0.10629047453403473
1771038064069349400,14.822349365234375,-2.1001532077789307,15.154333114624023,-2.670700788497925
1771038064088315600,14.841315673828126,-3.562563419342041,11.760368347167969,-7.244856357574463
1771038064107281700,14.86028173828125,-3.635867118835449,5.0616254806518555,-9.467182159423828
1771038064126248000,14.879248046875,-0.9920443892478943,1.3390156030654907,-7.03105354309082
1771038064145214000,14.8982138671875,0.0818558782339096,0.5962040424346924,-0.20402882993221283
1771038064164180000,14.917179931640625,-2.2589778900146484,1.1936297416687012,3.1667230129241943
1771038064183146200,14.936146240234375,-3.866774082183838,-1.5039490461349487,1.072678565979004
1771038064202112300,14.9551123046875,-5.495339393615723,-5.566199779510498,-14.609441757202148
1771038064221078500,14.97407861328125,-2.7305655479431152,6.379871845245361,-3.230252981185913
1771038064240044500,14.99304443359375,0.3445277214050293,5.7519025802612305,1.2461642026901245
1771038064259010800,15.0120107421875,1.2534945011138916,2.4740023612976074,0.9553925395011902
1771038064277976800,15.030976806640625,1.1838558912277222,-0.056199558079242706,1.1044435501098633
1771038064296942800,15.04994287109375,0.8393282294273376,1.2058470249176025,1.2498292922973633
1771038064315909000,15.0689091796875,0.7867938280105591,3.2094836235046387,2.146578788757324
1771038064334875100,15.087875244140625,0.9370665550231934,2.9578073024749756,1.9120067358016968
1771038064353841200,15.106841064453125,1.1056652069091797,1.887572169303894,1.802051067352295
1771038064372807400,15.125807373046875,1.2925899028778076,0.8454368710517883,3.925417184829712
1771038064391773400,15.1447734375,1.6077960729599,-1.3463460206985474,4.949226379394531
1771038064410739700,15.16373974609375,1.7959424257278442,-3.0225589275360107,4.772075653076172
1771038064429705700,15.182705810546874,1.7996076345443726,-3.9229736328125,4.83927059173584
1771038064448671700,15.201671630859375,2.4740023612976074,2.6951353549957275,1.986532211303711
1771038064467638000,15.220637939453125,4.624246597290039,7.153226375579834,-1.156977891921997
1771038064486604000,15.23960400390625,4.83927059173584,3.940077781677246,0.8820887207984924
1771038064505570300,15.2585703125,1.0641264915466309,-1.0372483730316162,1.7189735174179077
1771038064524536300,15.277536376953124,-1.4257583618164062,-7.342594623565674,3.238805055618286
1771038064543502300,15.29650244140625,-2.149022340774536,-8.897856712341309,4.366461277008057
1771038064562468600,15.315468505859375,-2.227212905883789,-6.059778690338135,3.8679957389831543
1771038064581434600,15.3344345703125,-1.4453060626983643,-3.470933675765991,3.3719735145568848
1771038064600400600,15.353400634765626,0.5827649831771851,-1.4831796884536743,1.944993495941162
1771038064619367000,15.372366943359374,3.1862707138061523,-1.2974767684936523,-1.265711784362793
1771038064638333000,15.3913330078125,5.098277568817139,-2.9822418689727783,-2.8173084259033203
1771038064657299200,15.41029931640625,6.052448272705078,-3.299891471862793,-1.8900156021118164
1771038064676265200,15.42926513671875,5.927831649780273,-1.6420044898986816,-3.894873857498169
1771038064695231200,15.448231201171875,5.630951404571533,-3.6725189685821533,-5.249772071838379
1771038064714197500,15.467197509765626,4.4409871101379395,-6.131860733032227,-0.9126319885253906
1771038064733163500,15.48616357421875,1.5723659992218018,-6.834355354309082,1.0848958492279053
1771038064752129500,15.505129638671875,-0.6401863098144531,-1.2009601593017578,1.4648537635803223
1771038064771095800,15.524095703125,-1.062904715538025,12.629018783569336,1.7825034856796265
1771038064790061800,15.543061767578125,-2.2821907997131348,16.82321548461914,0.6133082509040833
1771038064809028000,15.562028076171876,-3.5943284034729004,11.993719100952148,-2.6926920413970947
1771038064827994000,15.580994140625,-5.275428295135498,3.8570001125335693,-7.099470615386963
1771038064846960000,15.599960205078125,-4.762301921844482,-2.889390468597412,-7.309607982635498
1771038064865926100,15.618926025390625,-3.7482662200927734,-6.6596479415893555,1.0164790153503418
1771038064884892400,15.637892333984375,-4.741532325744629,-6.389645576477051,1.7947207689285278
1771038064903858400,15.6568583984375,-3.1202971935272217,-0.740368127822876,-9.155641555786133
1771038064922824700,15.67582470703125,-1.4367539882659912,3.657858371734619,-11.138508796691895
1771038064941790700,15.694790771484374,0.4251618981361389,1.556483507156372,0.5803215503692627
1771038064960756700,15.7137568359375,1.324354887008667,2.481332778930664,0.4520399272441864
1771038064979723000,15.732722900390625,1.4196497201919556,3.1923792362213135,-0.21258094906806946
1771038064998689000,15.75168896484375,1.3377938270568848,0.80389803647995,0.9761618971824646
1771038065017655000,15.770655029296876,1.102000117301941,-1.5332705974578857,3.6028804779052734
1771038065036621300,15.789621337890624,0.7049379348754883,-1.1362085342407227,3.017672061920166
1771038065055587300,15.80858740234375,0.6084213256835938,-0.4838049113750458,1.8387030363082886
1771038065074553300,15.82755322265625,0.5986474752426147,-0.3750709891319275,1.3096940517425537
1771038065093519600,15.84651953125,0.4166097939014435,-1.6151264905929565,2.7843215465545654
1771038065112485600,15.865485595703126,0.17348559200763702,-3.1862707138061523,4.765966892242432
1771038065131451600,15.88445166015625,-0.22846342623233795,-3.4025168418884277,5.075064659118652
1771038065150417700,15.903417724609374,-0.5436696410179138,-0.6035344004631042,5.635838508605957
1771038065169384000,15.922384033203125,0.6780598759651184,10.163568496704102,5.601630210876465
1771038065188350000,15.941349853515625,2.1172573566436768,6.379871845245361,0.6328558921813965
1771038065207316000,15.96031591796875,2.75744366645813,-0.5302306413650513,2.35305118560791
1771038065226282200,15.9792822265625,0.6976075768470764,-4.415330410003662,3.618762969970703
1771038065245248300,15.998248291015624,-1.033583164215088,-7.078701019287109,3.6309802532196045
1771038065264214300,16.01721435546875,-1.5772528648376465,-5.948601245880127,2.726900339126587
1771038065283180500,16.0361806640625,-1.2107340097427368,-3.584554433822632,2.388481378555298
1771038065302146600,16.055146484375,-0.0256563201546669,-2.1978914737701416,1.7287473678588867
1771038065321112600,16.074112548828126,1.5674790143966675,-1.9022328853607178,0.411722868680954
1771038065340078600,16.09307861328125,3.0323326587677,-1.1325433254241943,-1.390328288078308
1771038065359044900,16.112044921875,4.0194902420043945,-0.8442151546478271,-1.654221773147583
1771038065378011000,16.131010986328125,4.158767223358154,-0.32131487131118774,-1.452636480331421
1771038065396977000,16.149976806640623,3.9999425411224365,2.8906121253967285,-4.145328521728516
1771038065415943200,16.168943115234374,3.1422884464263916,0.4728093445301056,-5.883849620819092
1771038065434909200,16.1879091796875,0.9138537049293518,-8.169705390930176,0.39217519760131836
1771038065453875200,16.206875244140626,-0.31031930446624756,-5.5307698249816895,1.3365721702575684
1771038065472841200,16.22584130859375,-0.6768381595611572,7.2130913734436035,1.1520910263061523
1771038065491807500,16.244807373046875,-2.1636829376220703,16.413936614990234,-0.49480047821998596
1771038065510773500,16.2637734375,-3.6981754302978516,13.180018424987793,-4.864927291870117
1771038065529739500,16.282739501953124,-5.297419548034668,6.26991605758667,-8.481246948242188
1771038065548705500,16.30170556640625,-4.017046928405762,1.1533126831054688,-6.786707878112793
1771038065567671800,16.320671875,-1.731190800666809,-3.380525588989258,1.3585633039474487
1771038065586637800,16.339637939453127,-3.44283390045166,-4.8575968742370605,4.923570156097412
1771038065605603800,16.358603759765625,-4.692663192749023,-7.250965118408203,-4.383565425872803
1771038065624570000,16.377570068359375,-2.8319690227508545,-1.4440842866897583,-13.281421661376953
1771038065643536100,16.3965361328125,-0.034208428114652634,6.152629852294922,-1.1691951751708984
1771038065662502100,16.415502197265624,1.535714030265808,3.2901177406311035,-0.5656607747077942
1771038065681468200,16.43446826171875,1.7177517414093018,2.070831537246704,-1.3720022439956665
1771038065700434400,16.453434326171877,1.6151264905929565,0.7770199775695801,-0.4202749729156494
1771038065719400400,16.472400390625,1.5625921487808228,-0.4056142270565033,2.9907939434051514
1771038065738366500,16.491366455078126,1.5406010150909424,0.3640754222869873,3.705505847930908
1771038065757332500,16.51033251953125,1.4770710468292236,1.5137228965759277,2.8124215602874756
1771038065776298500,16.529298583984374,1.25715970993042,1.6346741914749146,2.1563527584075928
1771038065795264800,16.5482646484375,0.8075632452964783,0.18203771114349365,1.8631376028060913
1771038065814230800,16.567230712890623,0.3225366175174713,-3.1227407455444336,3.7311620712280273
1771038065833196800,16.58619677734375,0.12217295914888382,-4.6645636558532715,4.557051181793213
1771038065852162800,16.605162841796876,-0.19425499439239502,-4.767188549041748,4.599811553955078
1771038065871129000,16.624129150390626,-0.02932151034474373,-0.0977383628487587,5.488008975982666
1771038065890095000,16.64309521484375,1.7788382768630981,8.207579612731934,5.440361499786377
1771038065909061000,16.66206103515625,2.229656457901001,3.419620990753174,0.6817250847816467
1771038065928027100,16.681027099609373,1.92666757106781,-0.1844811588525772,1.9022328853607178
1771038065946993400,16.699993408203124,-0.046425722539424896,-4.8575968742370605,3.478264093399048
1771038065965959400,16.71895947265625,-1.6090178489685059,-6.713403701782227,2.9822418689727783
1771038065984925400,16.737925537109376,-2.0305144786834717,-5.9388275146484375,1.886350393295288
1771038066003891500,16.756891357421875,-1.5735876560211182,-4.131889343261719,1.9388848543167114
1771038066022857700,16.775857666015625,-0.3530798554420471,-2.127031087875366,1.3561197519302368
1771038066041823700,16.79482373046875,1.5625921487808228,-0.277332603931427,-0.34208428859710693
1771038066060789800,16.813789794921874,3.2058184146881104,0.20158538222312927,-2.145357131958008
1771038066079755800,16.832755859375,3.9364125728607178,-0.04520399495959282,-2.103818416595459
1771038066098721800,16.8517216796875,4.239401340484619,0.6108647584915161,-2.20155668258667
1771038066117688000,16.87068798828125,4.505738735198975,0.9199623465538025,-4.973660945892334
1771038066136654000,16.889654052734375,3.450164318084717,-5.261989116668701,-2.5864014625549316
1771038066155620000,16.9086201171875,1.5968005657196045,-9.06889820098877,1.109330415725708
1771038066174586000,16.927586181640624,0.41905322670936584,-3.6480844020843506,0.9786053895950317
1771038066193552100,16.94655224609375,-0.4324922561645508,8.829439163208008,0.6487383842468262
1771038066212518400,16.965518310546877,-1.8069380521774292,16.009544372558594,-0.5693259835243225
1771038066231484400,16.984484375,-3.0616543292999268,12.607027053833008,-4.018268585205078
1771038066250450400,17.003450439453125,-4.360352993011475,6.213716506958008,-7.6907877922058105
1771038066269416400,17.02241650390625,-3.9241952896118164,1.0128138065338135,-6.984627723693848
1771038066288382500,17.041382568359374,-2.768439292907715,-3.2815656661987305,0.6731730103492737
1771038066307348700,17.0603486328125,-3.911978006362915,-5.0310821533203125,3.903425931930542
1771038066326314800,17.079314697265627,-2.9797983169555664,-4.714654445648193,-1.1630865335464478
1771038066345280800,17.09828076171875,-2.4239113330841064,-1.832594394683838,-16.487239837646484
1771038066364246800,17.117246826171876,-0.6157516837120056,5.804437160491943,-3.302335023880005
1771038066383212800,17.136212890625,0.8576541543006897,3.5723371505737305,0.5558869242668152
1771038066402178800,17.1551787109375,1.3573415279388428,2.483776092529297,-0.46059203147888184
1771038066421145000,17.17414501953125,1.3915499448776245,1.2522728443145752,0.12583814561367035
1771038066440111000,17.193111083984373,1.4233149290084839,0.287106454372406,3.0078980922698975
1771038066459077000,17.2120771484375,1.3683371543884277,0.5913171172142029,3.957181930541992
1771038066478043100,17.231043212890626,1.3255765438079834,1.2901464700698853,2.8710644245147705
1771038066497009200,17.250009033203124,1.1899645328521729,1.2070688009262085,2.112370491027832
1771038066515975200,17.26897509765625,0.8381064534187317,0.13927717506885529,1.7299690246582031
1771038066534941400,17.28794140625,0.43982264399528503,-2.6059491634368896,3.269348382949829
1771038066553907500,17.306907470703123,0.21991132199764252,-4.42510461807251,4.328588008880615
1771038066572873500,17.32587353515625,-0.1893680840730667,-4.97488260269165,4.8075056076049805
1771038066601322500,17.354322509765623,0.3274235129356384,4.648681163787842,6.785485744476318
1771038066620288500,17.37328857421875,2.8124215602874756,6.751277446746826,2.6645922660827637
1771038066639254500,17.392254638671876,2.453233003616333,1.1972949504852295,1.2082905769348145
1771038066658220800,17.411220703125,0.23212862014770508,-3.2925610542297363,3.185049057006836
1771038066677186800,17.430186767578125,-1.390328288078308,-6.752499103546143,3.7458229064941406
1771038066696152800,17.44915283203125,-1.9022328853607178,-5.943714141845703,2.7232351303100586
1771038066715118800,17.468118896484373,-1.8142683506011963,-4.797731876373291,2.3261730670928955
1771038066734084900,17.4870849609375,-1.1410953998565674,-2.7647740840911865,1.7959424257278442
1771038066753051000,17.50605078125,0.32131487131118774,-0.657290518283844,0.471587598323822
1771038066772017000,17.525016845703124,2.0207407474517822,-0.4007273018360138,-2.6816964149475098
1771038066790983200,17.543983154296875,2.783099889755249,-0.8649845123291016,-2.3994767665863037
1771038066809949200,17.56294921875,2.987128734588623,0.3555232882499695,-0.9810488224029541
1771038066828915200,17.581915283203124,4.075689792633057,2.1197006702423096,-4.993208885192871
1771038066847881200,17.600881103515626,3.84722638130188,0.27000224590301514,-3.9364125728607178
1771038066866847200,17.61984716796875,2.017075538635254,-6.23204231262207,2.4373505115509033
1771038066885813200,17.638813232421874,1.1056652069091797,-4.568047046661377,2.9431464672088623
1771038066904779300,17.657779296875,0.7257073521614075,5.834980487823486,1.4819579124450684
1771038066923745300,17.676745361328123,-0.574212908744812,11.991275787353516,-0.823445737361908
1771038066942711600,17.695711669921874,-2.0720534324645996,9.683428764343262,-4.989543437957764
1771038066961677600,17.714677490234376,-4.161211013793945,7.270512580871582,-8.998038291931152
1771038066980643600,17.7336435546875,-5.044521331787109,6.041452884674072,-7.723774433135986
1771038066999609600,17.752609619140625,-3.517359495162964,0.007330377586185932,0.8148936033248901
1771038067018575600,17.77157568359375,-3.408625364303589,-5.933940410614014,4.743975639343262
1771038067037541600,17.790541748046873,-3.532020092010498,-7.308386325836182,-0.740368127822876
1771038067056507600,17.809507568359376,-3.1703882217407227,-1.9767584800720215,-16.34552001953125
1771038067075473700,17.8284736328125,-0.4825831651687622,9.865466117858887,-3.3854126930236816
1771038067094439700,17.847439697265624,1.1410953998565674,2.6193881034851074,0.37629270553588867
1771038067113405700,17.86640576171875,1.0115920305252075,-0.8906408548355103,-0.8625410795211792
1771038067132372000,17.8853720703125,0.45326167345046997,-1.1435388326644897,-0.08674279600381851
1771038067151338000,17.904337890625,0.01588248461484909,2.5473060607910156,1.4746276140213013
1771038067170304000,17.923303955078126,0.10506874322891235,5.1007208824157715,2.6450445652008057
1771038067189270000,17.94227001953125,0.15760311484336853,4.945561408996582,2.0244059562683105
1771038067208236000,17.961236083984375,0.2101374864578247,3.4831509590148926,1.8704679012298584
1771038067227202000,17.9802021484375,0.37262752652168274,1.5674790143966675,2.453233003616333
1771038067246168000,17.99916796875,0.7318159937858582,-0.7696896195411682,3.8435611724853516
1771038067265134000,18.018134033203125,1.3585633039474487,-2.2895212173461914,4.808727741241455
1771038067284100000,18.03710009765625,1.6285655498504639,-3.039663076400757,5.116603374481201
1771038067303066000,18.056066162109374,1.518609881401062,-3.462381601333618,4.838048934936523
1771038067322032400,18.075032470703125,1.8619158267974854,1.5112794637680054,0.5143481492996216
1771038067340998100,18.093998046875,2.8967208862304688,6.577792167663574,-0.3396408259868622
1771038067359964400,18.11296435546875,2.9553637504577637,0.8796452879905701,1.7287473678588867
1771038067378930400,18.131930419921876,-0.14172062277793884,-3.5613417625427246,3.6334238052368164
1771038067397896400,18.150896484375,-2.0476186275482178,-7.364585876464844,5.198459148406982
1771038067416862500,18.169862548828124,-2.539975643157959,-6.93942403793335,4.944339752197266
1771038067435828500,18.188828369140627,-2.2345433235168457,-4.897913932800293,3.925417184829712
1771038067454794500,18.20779443359375,-1.1081087589263916,-3.235139846801758,2.8796164989471436
1771038067473760500,18.226760498046875,1.1362085342407227,-2.0598361492156982,1.072678565979004
1771038067492726500,18.2457265625,3.90098237991333,-0.768467903137207,-1.684765100479126
1771038067511692500,18.264692626953124,5.145925045013428,-1.3451242446899414,-2.162461280822754
1771038067530658600,18.283658447265626,5.062847137451172,-1.4355322122573853,-1.2779290676116943
1771038067549624600,18.30262451171875,4.816058158874512,-0.7977893948554993,-3.2925610542297363
1771038067568590600,18.321590576171875,4.400670051574707,1.6713260412216187,-4.453204154968262
1771038067587556600,18.340556640625,1.8912373781204224,-3.758040189743042,1.7385212182998657
1771038067606522600,18.359522705078124,0.06475166976451874,-4.502073287963867,2.3432772159576416
1771038067625489000,18.378489013671874,-0.7648026943206787,4.703658580780029,0.7648026943206787
1771038067644454700,18.39745458984375,-1.8997894525527954,14.473830223083496,-0.9114102721214294
1771038067663421000,18.4164208984375,-3.302335023880005,13.782331466674805,-3.944964647293091
1771038067682387000,18.435386962890625,-5.235111236572266,8.153822898864746,-7.677348613739014
1771038067701353000,18.45435302734375,-5.403709888458252,2.8270821571350098,-8.555771827697754
1771038067720319000,18.473319091796874,-2.1025965213775635,-5.832536697387695,-2.858847141265869
1771038067739285000,18.492284912109376,-3.1984879970550537,-7.275399684906006,2.8490734100341797
1771038067758251000,18.5112509765625,-6.150186538696289,-6.235707759857178,1.1789690256118774
1771038067777217000,18.530217041015625,-5.1007208824157715,-12.01570987701416,-12.449423789978027
1771038067796183000,18.54918310546875,-0.8197805285453796,6.839241981506348,-6.914989471435547
1771038067815149000,18.568149169921874,1.0775654315948486,4.940674304962158,-0.6450732350349426
1771038067834115000,18.587114990234376,1.1313215494155884,1.0482439994812012,0.5864301919937134
1771038067853081000,18.6060810546875,0.6108647584915161,-0.14049890637397766,1.6982040405273438
1771038067872047000,18.625047119140625,0.4068359434604645,0.15027274191379547,1.9144501686096191
1771038067891013000,18.64401318359375,0.7415898442268372,3.193601131439209,1.8802417516708374
1771038067909979100,18.662979248046874,1.186299443244934,4.577820777893066,1.100778341293335
1771038067928945200,18.681945068359376,1.4049890041351318,3.9131996631622314,1.0030399560928345
1771038067947911200,18.7009111328125,1.3353503942489624,2.316399335861206,2.763552188873291
1771038067966877200,18.719877197265625,1.3451242446899414,-0.2309068888425827,5.573530197143555
1771038067985843200,18.73884326171875,1.50028395652771,-2.2846343517303467,5.97303581237793
1771038068004809200,18.757809326171873,1.2791508436203003,-3.7042839527130127,6.440958023071289
1771038068023775200,18.776775146484376,0.6365211009979248,-3.1752750873565674,3.128849506378174
1771038068042741200,18.7957412109375,1.7336342334747314,4.751306056976318,-0.48991355299949646
1771038068061707300,18.814707275390624,3.5662286281585693,5.323075771331787,-0.050090912729501724
1771038068080673300,18.83367333984375,2.0720534324645996,-0.43860089778900146,2.6340489387512207
1771038068099639300,18.852639404296873,-0.7269290685653687,-4.915018081665039,4.69388484954834
1771038068118605300,18.871605224609375,-1.905898094177246,-6.866120338439941,5.574751853942871
1771038068137571300,18.8905712890625,-2.0879359245300293,-6.4140801429748535,5.176468372344971
1771038068156537300,18.909537353515624,-1.4196497201919556,-4.212523460388184,4.246731758117676
1771038068175503400,18.92850341796875,0.7171552777290344,-1.877798318862915,2.4654502868652344
1771038068194469400,18.947469482421877,3.5918848514556885,-0.47525280714035034,-0.9089667797088623
1771038068213435400,18.966435302734375,5.4611310958862305,-1.3548980951309204,-2.0964879989624023
1771038068232401400,18.9854013671875,4.729315280914307,-3.112967014312744,-2.0830488204956055
1771038068251367400,19.004367431640624,4.482525825500488,-2.5741841793060303,-3.6138761043548584
1771038068270333400,19.02333349609375,4.646237373352051,-0.2577849328517914,-5.116603374481201
1771038068289299500,19.042299560546876,2.329838275909424,1.4172062873840332,0.6695078015327454
1771038068308265500,19.061265380859375,-0.554665207862854,-3.7824747562408447,2.880838394165039
1771038068327231500,19.0802314453125,-2.1807873249053955,-2.475224018096924,1.4648537635803223
1771038068346197500,19.099197509765624,-2.830747365951538,8.567989349365234,-0.12705987691879272
1771038068365163500,19.11816357421875,-3.8789913654327393,15.352253913879395,-1.6432262659072876
1771038068384129500,19.137129638671876,-5.259545803070068,12.315033912658691,-4.901578903198242
1771038068403095600,19.156095458984375,-5.886292934417725,3.9938340187072754,-7.296168804168701
1771038068422061600,19.1750615234375,-2.27730393409729,-4.150215148925781,-5.95104455947876
1771038068441027600,19.194027587890623,-0.47525280714035034,-6.6596479415893555,-1.7629557847976685
1771038068459993600,19.21299365234375,-4.582707405090332,-5.147146701812744,0.5473348498344421
1771038068478959600,19.231959716796876,-6.916211128234863,-9.279035568237305,-4.192975997924805
1771038068497925600,19.250925537109374,-2.408029079437256,-2.0109667778015137,-8.669392585754395
1771038068516891600,19.2698916015625,1.0848958492279053,5.47090482711792,-1.9486587047576904
1771038068535857700,19.288857666015623,1.5125012397766113,2.6755876541137695,-2.335946798324585
1771038068554823700,19.30782373046875,1.2192860841751099,1.5821397304534912,-1.4477494955062866
1771038068573789400,19.32678955078125,1.158199667930603,-0.07574722915887833,-0.09651663154363632
1771038068592755700,19.345755615234374,1.5638138055801392,0.05253437161445618,3.332878351211548
1771038068611721500,19.364721435546876,1.9217805862426758,1.1557561159133911,3.8802130222320557
1771038068630687700,19.383687744140627,2.1416919231414795,1.986532211303711,2.640157461166382
1771038068649653500,19.402653564453125,2.064723014831543,2.0720534324645996,1.8387030363082886
1771038068668619500,19.42161962890625,1.7580687999725342,1.2143992185592651,1.6065744161605835
1771038068687585500,19.44058544921875,1.5515965223312378,-0.48013970255851746,2.405585527420044
1771038068706551600,19.459551513671876,1.3561197519302368,-2.5302019119262695,4.1868672370910645
1771038068725517600,19.478517578125,0.9321796298027039,-3.8765478134155273,5.588191032409668
1771038068744483600,19.497483642578125,0.4312705397605896,0.8026763200759888,6.194169044494629
1771038068782415600,19.53541552734375,1.8521419763565063,1.9914191961288452,0.6084213256835938
1771038068810864600,19.56386474609375,0.3640754222869873,-3.8850998878479004,3.9412994384765625
1771038068829830700,19.58283056640625,-1.4110976457595825,-6.913767337799072,5.038412570953369
1771038068848796700,19.601796630859376,-2.13191819190979,-6.803812026977539,4.575376987457275
1771038068867762700,19.6207626953125,-1.6053526401519775,-4.571712017059326,4.249175548553467
1771038068896211700,19.649211669921876,1.8716896772384644,-0.39828383922576904,0.44348782300949097
1771038068915177700,19.668177734375,4.344470500946045,-0.7819069027900696,-3.0750932693481445
1771038068934143500,19.6871435546875,4.796510219573975,-2.2064435482025146,-1.3402373790740967
1771038068953109500,19.706109619140626,4.489856243133545,-1.3463460206985474,-1.546709656715393
1771038068972075500,19.725075439453125,4.86737060546875,-0.3787361681461334,-5.302306175231934
1771038068991041500,19.74404150390625,3.0323326587677,-2.5754058361053467,-0.1441640853881836
1771038069010007600,19.763007568359374,-0.09529490768909454,-8.373734474182129,3.788583278656006
1771038069028973600,19.7819736328125,-1.4734058380126953,-2.4740023612976074,1.5833615064620972
1771038069047939600,19.800939697265626,-1.9608759880065918,14.070659637451172,-0.3543015718460083
1771038069066905600,19.819905517578125,-3.3658649921417236,17.143308639526367,-2.0586142539978027
1771038069085871600,19.83887158203125,-4.99687385559082,12.393224716186523,-5.020086765289307
1771038069104837600,19.857837646484374,-6.328558921813965,4.893026828765869,-7.746987342834473
1771038069123803600,19.8768037109375,-4.390895843505859,-4.326144218444824,-7.572279930114746
1771038069142769700,19.895769775390626,-0.5485565662384033,-11.030996322631836,-2.4178028106689453
1771038069161735700,19.914735595703124,-3.332878351211548,-6.823359489440918,1.2229512929916382
1771038069180701700,19.93370166015625,-6.178286552429199,-3.858222007751465,-0.5253437161445618
1771038069199667500,19.95266748046875,-3.087310552597046,-5.782445907592773,-13.903282165527344
1771038069218633500,19.971633544921875,0.28954991698265076,7.605266571044922,-4.471529960632324
1771038069237599500,19.990599609375,1.117882490158081,2.866177558898926,-0.6206386089324951
1771038069256565500,20.0095654296875,0.6731730103492737,0.32620179653167725,0.13194678723812103
1771038069275531500,20.028531494140626,0.3750709891319275,-1.119104266166687,0.647516667842865
1771038069294497500,20.04749755859375,0.4886918365955353,1.0739002227783203,1.7898337841033936
1771038069313463600,20.066463623046875,1.0079269409179688,4.081798553466797,2.724457025527954
1771038069332429600,20.0854296875,1.4404191970825195,4.006051063537598,2.042731761932373
1771038069351395600,20.1043955078125,1.5760310888290405,2.344499111175537,1.8142683506011963
1771038069370361600,20.123361572265626,1.4929535388946533,-0.06352993845939636,2.631605386734009
1771038069389327400,20.142327392578125,1.3585633039474487,-1.9181153774261475,4.327365875244141
1771038069408293400,20.16129345703125,1.2791508436203003,-2.8405213356018066,5.313302040100098
1771038069427259400,20.18025927734375,0.8845322132110596,-3.727496862411499,5.940049171447754
1771038069446225400,20.199225341796875,0.37629270553588867,0.9199623465538025,4.118450164794922
1771038069465191400,20.21819140625,-0.11239911615848541,5.154477119445801,0.39828383922576904
1771038069484157400,20.237157470703124,1.7800599336624146,1.3402373790740967,0.5705476999282837
1771038069503123500,20.25612353515625,1.5393792390823364,-0.10995566099882126,3.0702064037323
1771038069522089500,20.27508935546875,-0.823445737361908,-4.324922561645508,5.375609874725342
1771038069541055500,20.294055419921875,-1.9572107791900635,-6.1208648681640625,5.381718635559082
1771038069560021200,20.313021240234374,-2.3066253662109375,-6.047561168670654,4.680446147918701
1771038069578987300,20.3319873046875,-1.8191553354263306,-3.640753984451294,3.595550060272217
1771038069597953300,20.350953369140626,-0.1282816082239151,-1.334128737449646,1.8949025869369507
1771038069616919300,20.369919189453125,2.084270715713501,-0.2467893660068512,-0.6524035930633545
1771038069635885300,20.38888525390625,3.710392713546753,-0.546113133430481,-1.8936808109283447
1771038069654851300,20.407851318359373,4.032929420471191,-1.3439024686813354,-1.5100576877593994
1771038069673817300,20.4268173828125,3.6285367012023926,-1.128878116607666,-1.0739002227783203
1771038069692783400,20.445783447265626,3.6065456867218018,-1.792277216911316,-1.331685185432434
1771038069711749000,20.4647490234375,2.9126033782958984,-4.282162189483643,1.0225876569747925
1771038069730715100,20.483715087890626,1.0470222234725952,-9.220393180847168,3.5784459114074707
1771038069749681200,20.50268115234375,0.26511532068252563,-5.191128730773926,0.6267472505569458
1771038069768647200,20.521647216796875,0.013439024798572063,4.657233238220215,-2.65970516204834
1771038069787613200,20.54061328125,-1.082452416419983,12.626574516296387,-4.988321781158447
1771038069816062200,20.569062255859375,-2.6047275066375732,8.640071868896484,-7.865494728088379
1771038069835028200,20.5880283203125,-1.8142683506011963,-1.1936297416687012,-8.178257942199707
1771038069853994000,20.606993896484376,0.564439058303833,-7.049379348754883,-4.808727741241455
1771038069872960000,20.6259599609375,-1.266933560371399,-3.0384414196014404,-1.2999202013015747
1771038069891926000,20.644926025390625,-4.743975639343262,0.5192350745201111,-0.9883792400360107
1771038069910892000,20.66389208984375,-4.063472747802734,-9.088446617126465,-6.3664326667785645
1771038069929858000,20.682858154296873,0.28466299176216125,-2.3481643199920654,-5.177690029144287
1771038069948824000,20.701823974609376,0.778241753578186,4.69388484954834,-1.6713260412216187
1771038069967790000,20.7207900390625,1.0311397314071655,4.021933555603027,-0.8381064534187317
1771038069986755800,20.739755859375,1.3487894535064697,3.109301805496216,0.526565432548523
1771038070005721900,20.758721923828126,1.7458515167236328,2.414137601852417,1.0152572393417358
1771038070024687900,20.77768798828125,2.316399335861206,2.9150466918945312,1.5931353569030762
1771038070043654000,20.79665380859375,2.835634231567383,2.7672173976898193,2.702465772628784
1771038070062620000,20.815619873046874,2.7232351303100586,0.6010909676551819,2.841742992401123
1771038070081586000,20.8345859375,2.051283836364746,-2.1197006702423096,2.989572286605835
1771038070100552000,20.853552001953126,1.275485634803772,-3.277900457382202,3.911978006362915
1771038070119518000,20.87251806640625,0.5400044918060303,-3.9889469146728516,4.87347936630249
1771038070138483700,20.891483642578127,-0.3347539007663727,-4.57659912109375,5.462352752685547
1771038070157449700,20.91044970703125,-3.082423686981201,0.6524035930633545,8.695049285888672
1771038070176415700,20.929415771484376,-3.3157739639282227,2.511875867843628,4.283383846282959
1771038070195381800,20.9483818359375,0.24312418699264526,0.8503237962722778,2.9101598262786865
1771038070214347800,20.96734765625,-0.5913171172142029,-1.441640853881836,4.331031322479248
1771038070233313800,20.986313720703127,-2.335946798324585,-3.962069034576416,5.235111236572266
1771038070252279600,21.005279541015625,-2.765995740890503,-4.607141971588135,4.987100124359131
1771038070271245600,21.02424560546875,-1.8741331100463867,-3.525911569595337,3.9693994522094727
1771038070290211600,21.043211669921874,-0.43493571877479553,-1.2046253681182861,1.869246244430542
1771038070309177600,21.062177490234376,1.459966778755188,1.7324124574661255,-1.3096940517425537
1771038070337626600,21.090626708984374,3.646862745285034,1.5931353569030762,-3.5417940616607666
1771038070356592600,21.109592529296876,3.654193162918091,0.02932151034474373,-2.596175193786621
1771038070375558400,21.128558349609374,3.067762851715088,-1.0653481483459473,-1.9950844049453735
1771038070394524400,21.1475244140625,3.280343770980835,-1.3561197519302368,-2.559523344039917
1771038070413490400,21.166490478515627,2.9150466918945312,1.915671944618225,0.36774060130119324
1771038070432456400,21.18545654296875,1.0885610580444336,-4.6230244636535645,2.283412456512451
1771038070451422500,21.20442236328125,-0.12095122784376144,-1.6444480419158936,-0.8112284541130066
1771038070470388500,21.223388427734374,-0.27366742491722107,6.495935916900635,-3.1337363719940186
1771038070489354500,21.2423544921875,-0.7977893948554993,9.454964637756348,-4.696328639984131
1771038070508320500,21.261320556640626,-1.9034546613693237,10.114699363708496,-7.099470615386963
1771038070527286300,21.280286376953125,-2.1563527584075928,1.6212351322174072,-7.958346366882324
1771038070546252300,21.299252197265623,1.1740821599960327,-2.0879359245300293,-6.4311842918396
1771038070565218300,21.31821826171875,-0.23212862014770508,2.145357131958008,-3.634645462036133
1771038070584184300,21.337184326171876,-4.482525825500488,3.5613417625427246,-1.7165300846099854
1771038070603150300,21.356150390625,-6.660869598388672,-4.828275203704834,-5.323075771331787
1771038070622116000,21.3751162109375,-3.7812530994415283,-0.19181154668331146,-9.679762840270996
1771038070641082000,21.39408203125,0.7354812026023865,8.524006843566895,-3.957181930541992
1771038070660048100,21.413048095703125,1.4966187477111816,3.1923792362213135,-2.755000114440918
1771038070679014100,21.43201416015625,1.0201442241668701,1.6346741914749146,-0.7012727856636047
1771038070697980200,21.450980224609374,0.6438514590263367,4.3041534423828125,-0.31520622968673706
1771038070716946200,21.4699462890625,0.924849271774292,5.921723365783691,0.021991131827235222
1771038070735912200,21.488912109375,1.518609881401062,5.057960510253906,-0.043982263654470444
1771038070754878000,21.5078779296875,1.7519601583480835,6.403084754943848,0.44837474822998047
1771038070773844000,21.526843994140624,2.0916008949279785,3.252243995666504,1.9584324359893799
1771038070792810000,21.54581005859375,2.564410448074341,-0.2993237376213074,4.1257805824279785
1771038070811776000,21.56477587890625,3.0421066284179688,-1.4660754203796387,5.582082271575928
1771038070830742000,21.583741943359374,3.428173065185547,-1.480736255645752,6.404306411743164
1771038070849708000,21.6027080078125,3.6199846267700195,0.4153880476951599,2.164904832839966
1771038070868674000,21.621674072265623,4.056142330169678,4.065916061401367,-1.176525592803955
1771038070887639800,21.640639892578125,4.813614368438721,4.08424186706543,-0.44348782300949097
1771038070916088800,21.6690888671875,1.2742639780044556,-1.0286962985992432,2.8771731853485107
1771038070935054800,21.688054931640625,-0.9419534802436829,-4.626689910888672,4.83927059173584
1771038070954020900,21.707020751953124,-1.6591087579727173,-5.643168926239014,4.960222244262695
1771038070972987000,21.72598681640625,-1.7739512920379639,-4.384787559509277,3.749488115310669
1771038070991952600,21.74495263671875,-0.9358448386192322,-2.1355831623077393,1.682321548461914
1771038071010918700,21.763918701171875,0.49113526940345764,-0.6230821013450623,-1.5100576877593994
1771038071029884700,21.782884765625,1.7629557847976685,-1.7751730680465698,-2.9516985416412354
1771038071048850700,21.8018505859375,3.028667688369751,-1.4672971963882446,-2.9040510654449463
1771038071067816700,21.820816650390626,3.721388339996338,-0.3897317349910736,-2.7232351303100586
1771038071086782700,21.83978271484375,4.025599002838135,-1.227838158607483,-2.140470266342163
1771038071105748700,21.858748779296874,3.6334238052368164,-6.230820655822754,1.8252639770507812
1771038071124714500,21.877714599609376,2.6047275066375732,-4.819723129272461,5.66027307510376
1771038071143680500,21.896680419921875,1.9596542119979858,-0.851545512676239,4.382343769073486
1771038071162646500,21.915646484375,1.6432262659072876,6.5985612869262695,-0.39828383922576904
1771038071181612500,21.934612548828124,0.1637117564678192,11.649190902709961,-3.9437429904937744
1771038071200578600,21.95357861328125,-1.1936297416687012,11.148282051086426,-4.973660945892334
1771038071219544300,21.97254443359375,-2.134361505508423,7.553953647613525,-6.078104496002197
1771038071238510300,21.99151025390625,-3.861887216567993,1.8044945001602173,-7.089696407318115
1771038071257476400,22.010476318359373,-4.57659912109375,-4.629133224487305,-6.272359371185303
1771038071276442400,22.0294423828125,-6.802590370178223,-6.0451178550720215,0.9883792400360107
1771038071295408400,22.048408447265626,-11.938741683959961,-2.9749114513397217,4.819723129272461
1771038071314374400,22.06737451171875,-7.744543552398682,-11.71272087097168,0.3274235129356384
1771038071333340400,22.08634033203125,0.1441640853881836,-15.263067245483398,-9.145867347717285
1771038071352306400,22.105306396484377,1.1520910263061523,6.660869598388672,-3.8093528747558594
1771038071371272200,22.124272216796875,1.7446298599243164,6.554579257965088,-2.2614214420318604
1771038071390238200,22.14323828125,1.8668028116226196,3.7348272800445557,0.01954767294228077
1771038071409204200,22.162204345703124,1.731190800666809,1.7238603830337524,2.151465654373169
1771038071428170200,22.181170166015626,1.682321548461914,0.49968740344047546,3.230252981185913
1771038071447136300,22.20013623046875,1.7299690246582031,1.0677915811538696,2.6780312061309814
1771038071466102300,22.219102294921875,1.8069380521774292,1.091004490852356,1.8887939453125
1771038071485068000,22.238068115234373,1.703091025352478,0.2406807243824005,1.8228205442428589
1771038071504034000,22.257033935546875,1.3011419773101807,-0.6817250847816467,3.760483503341675
1771038071523000000,22.276,1.0091485977172852,-1.422093152999878,4.82949686050415
1771038071541966000,22.294966064453124,0.7415898442268372,-1.7189735174179077,4.772075653076172
1771038071560932000,22.31393212890625,0.5497782826423645,1.2388337850570679,4.802618980407715
1771038071579898000,22.332898193359377,0.3640754222869873,10.61927318572998,4.499629974365234
1771038071598864000,22.35186376953125,-0.6878337264060974,3.084867238998413,0.2981020212173462
1771038071617830000,22.370829833984374,2.1783437728881836,-0.20402882993221283,2.349385976791382
1771038071636796000,22.3897958984375,0.10506874322891235,-3.1752750873565674,4.399447917938232
1771038071655762000,22.408761962890626,-1.7544035911560059,-5.932718753814697,4.850266456604004
1771038071674728000,22.42772802734375,-2.1135921478271484,-5.759232997894287,4.009716510772705
1771038071693694000,22.44669384765625,-0.6548470258712769,-3.814239740371704,3.0921974182128906
1771038071722142700,22.475142822265624,1.9376630783081055,-3.106858253479004,1.4966187477111816
1771038071741108700,22.494108642578126,3.2290313243865967,-1.166751742362976,-0.9468404054641724
1771038071760074800,22.51307470703125,3.808130979537964,-0.043982263654470444,-2.2064435482025146
1771038071779040800,22.532040771484375,3.347538948059082,-0.544891357421875,-1.5406010150909424
1771038071798006800,22.5510068359375,3.0103416442871094,0.4043924808502197,-2.2308781147003174
1771038071816972800,22.569972900390624,3.501477003097534,2.149022340774536,-5.489231109619141
1771038071835938600,22.5889384765625,2.1697916984558105,1.8936808109283447,0.003665188793092966
1771038071854904600,22.607904541015625,0.2577849328517914,-3.5271332263946533,2.7989823818206787
1771038071873870600,22.62687060546875,-0.8100066781044006,-0.040317077189683914,-1.053130865097046
1771038071892836600,22.645836669921874,-1.000596523284912,9.098219871520996,-3.3768606185913086
1771038071911802600,22.664802734375,-2.6474878787994385,14.577676773071289,-4.178315162658691
1771038071930768600,22.6837685546875,-3.5002551078796387,8.814778327941895,-4.834383964538574
1771038071949734700,22.702734619140625,-2.6804747581481934,2.835634231567383,-5.503891468048096
1771038071968700400,22.721700439453127,-1.811824917793274,-0.30543237924575806,-4.056142330169678
1771038071997149400,22.7501494140625,-5.692038059234619,-2.483776092529297,0.6120865345001221
1771038072016115500,22.769115478515626,-7.50508451461792,-14.639985084533691,-5.182576656341553
1771038072035081500,22.78808154296875,-3.4049603939056396,-1.7837251424789429,-6.245481491088867
1771038072063530500,22.816530517578126,0.7391464114189148,4.493521213531494,-2.765995740890503
1771038072082496300,22.835496337890625,0.6682860851287842,2.310290575027466,-3.093419313430786
1771038072101462300,22.854462158203123,0.25900667905807495,1.9291110038757324,-0.6536253094673157
1771038072120428300,22.87342822265625,0.24801109731197357,2.251647472381592,1.4404191970825195
1771038072139394300,22.892394287109376,0.6316341757774353,2.9297075271606445,2.3005168437957764
1771038072167843300,22.92084326171875,1.3121376037597656,3.1838271617889404,1.8936808109283447
1771038072186809300,22.939809326171876,1.5833615064620972,1.9657628536224365,2.0097451210021973
1771038072205775000,22.958775146484374,1.7079778909683228,0.28954991698265076,2.674365997314453
1771038072224741000,22.9777412109375,1.5968005657196045,0.034208428114652634,5.301084518432617
1771038072243707100,22.99670703125,1.841146469116211,-0.84177166223526,6.134304046630859
1771038072262673200,23.015673095703125,1.9107850790023804,-2.10992693901062,6.5203704833984375
1771038072281639200,23.03463916015625,1.2095122337341309,-2.945590019226074,2.4190244674682617
1771038072300605200,23.053605224609374,1.1753038167953491,5.15203332901001,-0.8723149299621582
1771038072319571200,23.0725712890625,3.0188937187194824,5.356062412261963,-0.8014546036720276
1771038072338537200,23.091537109375,2.386037826538086,-0.7770199775695801,2.548527956008911
1771038072357503000,23.1105029296875,-0.4557051360607147,-5.0396342277526855,5.696925163269043
1771038072395435000,23.14843505859375,-1.8949025869369507,-5.382940292358398,5.015199661254883
1771038072414401000,23.167401123046876,-0.7806851863861084,-3.1972663402557373,3.196044445037842
1771038072433367000,23.186366943359374,1.3451242446899414,-1.5943571329116821,1.3365721702575684
1771038072452333000,23.2053330078125,3.996277332305908,-1.0690133571624756,-0.8857539296150208
1771038072471299000,23.224299072265627,5.326740741729736,-1.7763947248458862,-2.397033452987671
1771038072490265000,23.24326513671875,4.875922679901123,-3.85333514213562,-1.673769474029541
1771038072509230800,23.26223095703125,4.382343769073486,-2.6303837299346924,-2.120922565460205
1771038072528196900,23.28119677734375,4.354244232177734,1.617569923400879,-3.740935802459717
1771038072547163000,23.300162841796876,2.4740023612976074,3.8826565742492676,0.9993748068809509
1771038072566129000,23.31912890625,-0.1649334877729416,-2.8710644245147705,2.274860382080078
1771038072585095000,23.338094970703125,-1.7763947248458862,1.0189224481582642,-0.8539889454841614
1771038072604061000,23.35706103515625,-2.335946798324585,10.729228973388672,-2.9993460178375244
1771038072623027000,23.37602685546875,-3.400073289871216,13.450020790100098,-3.341430425643921
1771038072641992700,23.39499267578125,-3.9241952896118164,7.508749961853027,-4.258949279785156
1771038072660958700,23.413958740234374,-3.3573129177093506,-0.13683371245861053,-5.280314922332764
1771038072679924700,23.4329248046875,-2.2956297397613525,-3.8008005619049072,-3.8374526500701904
1771038072698890800,23.451890869140627,-4.654789447784424,-4.367683410644531,-0.4838049113750458
1771038072717856800,23.470856689453125,-6.685304164886475,-7.913142204284668,-1.2339468002319336
1771038072736822800,23.48982275390625,-4.105011463165283,-7.125126838684082,-10.1012601852417
1771038072755788800,23.508788818359374,0.7538071274757385,7.513636589050293,-3.6419758796691895
1771038072774754800,23.5277548828125,1.5589269399642944,1.2510510683059692,-2.791651964187622
1771038072793720800,23.546720947265626,0.9993748068809509,-0.43493571877479553,-1.7641774415969849
1771038072812686800,23.565686767578125,0.3652971386909485,0.8600975871086121,0.11117739230394363
1771038072831652600,23.584652587890623,0.09285144507884979,3.5307984352111816,1.8765766620635986
1771038072850618600,23.60361865234375,0.34697118401527405,3.920530080795288,2.171013355255127
1771038072869584600,23.622584716796876,0.647516667842865,2.4996585845947266,2.1673481464385986
1771038072888550700,23.641550537109374,0.943175196647644,1.0592395067214966,2.8075344562530518
1771038072907516700,23.6605166015625,1.2180644273757935,0.4056142270565033,3.975507974624634
1771038072926482700,23.679482666015623,1.6297872066497803,-0.13072505593299866,5.60040807723999
1771038072945448700,23.69844873046875,2.0500621795654297,-1.3634501695632935,6.225934028625488
1771038072964414700,23.717414794921876,2.0182971954345703,-1.7678426504135132,5.445248603820801
1771038072983380500,23.73638037109375,1.8240422010421753,0.3811796307563782,2.6364924907684326
1771038073002346500,23.755346435546876,1.5943571329116821,5.1679158210754395,-1.1496474742889404
1771038073021312500,23.7743125,2.7843215465545654,4.361574649810791,0.001221729558892548
1771038073040278500,23.793278564453125,1.9840887784957886,-0.516791582107544,2.981020212173462
1771038073059244500,23.81224462890625,-0.5009090900421143,-4.499629974365234,5.026195526123047
1771038073078210600,23.83121044921875,-2.207665205001831,-6.113534927368164,5.199680805206299
1771038073097176600,23.850176513671876,-2.3872594833374023,-4.59248161315918,3.7116143703460693
1771038073116142600,23.869142578125,-0.8393282294273376,-3.2155921459198,2.27119517326355
1771038073135108600,23.888108642578125,0.9065233469009399,-2.4825544357299805,0.9334014058113098
1771038073154074600,23.90707470703125,2.188117742538452,-1.3561197519302368,-0.7574723362922668
1771038073173040600,23.92604052734375,3.4330601692199707,-0.9566142559051514,-1.8387030363082886
1771038073192006400,23.94500634765625,4.568047046661377,-0.7635809779167175,-2.006079912185669
1771038073210972400,23.963972412109374,4.695106506347656,-2.0390665531158447,-1.3842196464538574
1771038073229938700,23.982938720703125,4.493521213531494,-1.351232886314392,-2.127031087875366
1771038073248904400,24.001904541015627,3.506363868713379,4.5643815994262695,-0.33719736337661743
1771038073267870500,24.020870361328125,1.2351685762405396,-0.5338957905769348,3.1557273864746094
1771038073286836500,24.03983642578125,-0.235793799161911,0.5693259835243225,-1.2168426513671875
1771038073305802500,24.058802490234374,-0.8881973624229431,8.492241859436035,-4.9162397384643555
1771038073324768500,24.0777685546875,-1.8289291858673096,12.07190990447998,-4.023155212402344
1771038073343734500,24.096734619140626,-3.3402085304260254,8.675501823425293,-4.607141971588135
1771038073362700500,24.115700439453125,-4.725649833679199,1.9498803615570068,-5.687150955200195
1771038073381666600,24.13466650390625,-4.569268703460693,-4.647459030151367,-3.690845012664795
1771038073400632600,24.153632568359374,-5.389049053192139,-6.189281940460205,1.711643099784851
1771038073419598600,24.1725986328125,-6.993179798126221,-6.563131332397461,2.8490734100341797
1771038073438564600,24.191564697265626,-3.4745988845825195,-12.767073631286621,-9.148310661315918
1771038073457530600,24.210530517578125,1.831372618675232,5.6150689125061035,-4.84537935256958
1771038073476496600,24.22949658203125,2.592510223388672,2.7782130241394043,-3.453829526901245
1771038073495462700,24.248462646484374,2.0830488204956055,-0.18081597983837128,-3.050658702850342
1771038073514428700,24.2674287109375,1.4074324369430542,-0.36285367608070374,-0.7147117853164673
1771038073533394400,24.28639453125,1.0519092082977295,-0.47525280714035034,3.015228509902954
1771038073552360400,24.3053603515625,0.8051197528839111,-0.5302306413650513,3.5161375999450684
1771038073571326500,24.324326416015627,0.8051197528839111,1.8472551107406616,2.279747247695923
1771038073590292500,24.34329248046875,1.0079269409179688,3.1691665649414062,1.5687007904052734
1771038073609258500,24.362258544921875,0.9089667797088623,2.2223260402679443,1.6090178489685059
1771038073628224500,24.381224609375,0.5974257588386536,0.05864302068948746,2.486219644546509
