time,seconds_elapsed,z,y,x
1771038049500947200,0.253947265625,-1.29503333568573,1.258992314338684,-0.3805687427520752
1771038049519913500,0.27291357421875,-1.285259485244751,0.24312418699264526,-0.12644900381565094
1771038049538879500,0.29187939453125,-1.1508692502975464,-0.33536475896835327,0.09040798991918564
1771038049557845800,0.310845703125,-0.9908226728439331,-0.4404335021972656,0.026878049597144127
1771038049576811800,0.329811767578125,-0.8399390578269958,-0.768467903137207,0.2370155304670334
1771038049595778000,0.348778076171875,-1.296255111694336,-1.4129302501678467,0.15638138353824615
1771038049614744000,0.367744140625,-1.4636319875717163,-1.6609413623809814,0.021380268037319183
1771038049633710000,0.3867099609375,-0.7800742983818054,-1.5326597690582275,-0.0256563201546669
1771038049652676000,0.405676025390625,-0.14599667489528656,-1.8716896772384644,-0.043371398001909256
1771038049671642400,0.424642333984375,0.2571740746498108,-1.8264856338500977,-0.411722868680954
1771038049690608400,0.4436083984375,0.8368847370147705,-1.6914845705032349,-0.7898481488227844
1771038049709574400,0.462574462890625,0.9089667797088623,-1.9608759880065918,-0.8558215498924255
1771038049728540400,0.48154052734375,0.39400777220726013,-2.556469202041626,-0.5754346251487732
1771038049747506700,0.500506591796875,-0.2009745091199875,-2.6981897354125977,-0.05070177838206291
1771038049766472700,0.51947265625,-0.5094612240791321,-1.9187263250350952,0.6065887212753296
1771038049785439000,0.53843896484375,-0.37323838472366333,-0.3072649836540222,1.05496346950531
1771038049804405000,0.557405029296875,-0.11178825795650482,0.8949168920516968,1.3121376037597656
1771038049823371000,0.57637109375,-0.1178968995809555,-0.23518294095993042,1.331685185432434
1771038049842337300,0.595337158203125,-0.5784889459609985,-1.3597849607467651,0.45509424805641174
1771038049861303300,0.61430322265625,-1.0122029781341553,-1.2241730690002441,0.11239911615848541
1771038049880269300,0.633269287109375,-1.4001020193099976,-0.9303470849990845,0.19120067358016968
1771038049899235300,0.6522353515625,-1.3182462453842163,-0.7134900689125061,0.5662716627120972
1771038049918201600,0.67120166015625,-0.8631519079208374,-0.574212908744812,0.7794634699821472
1771038049937167600,0.690167724609375,-0.7666352987289429,-0.6065887212753296,0.34636032581329346
1771038049956133600,0.709133544921875,-0.6743947267532349,0.006108647678047419,-0.10201441496610641
1771038049975100000,0.728099853515625,-0.42943793535232544,0.6499601006507874,-0.44898560643196106
1771038049994066000,0.74706591796875,-0.3530798554420471,0.7147117853164673,-0.536339282989502
1771038050013032000,0.766031982421875,-0.318871408700943,0.5607738494873047,-0.4007273018360138
1771038050031998000,0.784998046875,-0.26511532068252563,0.34147340059280396,-0.18142683804035187
1771038050050964200,0.803964111328125,-0.17531819641590118,0.15271618962287903,0.026878049597144127
1771038050069930200,0.82293017578125,-0.017104214057326317,0.3029889166355133,0.06536252796649933
1771038050088896300,0.841896240234375,0.14660754799842834,0.5974257588386536,-0.2864955961704254
1771038050107862500,0.860862548828125,0.21685700118541718,0.7770199775695801,-0.952949047088623
1771038050126828500,0.87982861328125,0.008552107028663158,0.648127555847168,-1.7061452865600586
1771038050145794600,0.898794677734375,0.12034036219120026,0.7874047160148621,-1.7825034856796265
1771038050164760600,0.917760498046875,0.31642794609069824,0.9132428169250488,-1.1074978113174438
1771038050183726600,0.9367265625,0.5870410799980164,1.5100576877593994,-0.3481929302215576
1771038050202692900,0.95569287109375,0.8772017955780029,2.3255622386932373,-0.12156209349632263
1771038050221659000,0.974658935546875,0.9975422024726868,2.3878703117370605,-0.4789179861545563
1771038050240625000,0.993625,0.8497129082679749,2.0079126358032227,-0.9071341753005981
1771038050259591200,1.012591064453125,0.5497782826423645,1.8771874904632568,-1.2229512929916382
1771038050278557200,1.03155712890625,0.7128791809082031,2.1325290203094482,-1.6236785650253296
1771038050297523200,1.050523193359375,0.8277217745780945,3.0891432762145996,-2.2559237480163574
1771038050316489200,1.0694892578125,0.6688969135284424,4.560105800628662,-2.9907939434051514
1771038050335455200,1.088455322265625,0.27427828311920166,6.092154502868652,-3.4556620121002197
1771038050354421500,1.10742138671875,-0.049480047076940536,3.908923625946045,-2.751945734024048
1771038050373387500,1.126387451171875,0.2309068888425827,2.81119966506958,-0.6652317643165588
1771038050392353800,1.145353759765625,1.2467750310897827,1.5149446725845337,1.0238093137741089
1771038050411319800,1.16431982421875,2.5503604412078857,1.7684534788131714,0.5937605500221252
1771038050430285800,1.183285888671875,3.336543321609497,3.0280566215515137,-0.07024945318698883
1771038050449251800,1.202251953125,3.277289628982544,2.4550654888153076,-1.091004490852356
1771038050468217900,1.2212177734375,2.028071165084839,1.7134757041931152,-1.7996076345443726
1771038050487184000,1.240183837890625,0.9786053895950317,2.34694242477417,-2.240652084350586
1771038050506150100,1.259150146484375,0.42455101013183594,2.547916889190674,-3.811185359954834
1771038050525116200,1.2781162109375,-0.6114756464958191,1.694538950920105,-4.344470500946045
1771038050544082200,1.297082275390625,-1.9083415269851685,0.5180133581161499,-3.956571102142334
1771038050563048400,1.31604833984375,-3.163057804107666,0.462424635887146,-4.207636833190918
1771038050582014500,1.335014404296875,-3.9095346927642822,2.148411512374878,-4.24184513092041
1771038050600980500,1.35398046875,-4.120283126831055,3.7763659954071045,-3.476431369781494
1771038050619946500,1.372946533203125,-3.8942630290985107,4.634631156921387,-2.0995421409606934
1771038050638912500,1.39191259765625,-4.1257805824279785,5.1233229637146,-1.6395610570907593
1771038050657878800,1.410878662109375,-5.307193279266357,4.4861907958984375,-2.1917827129364014
1771038050676844800,1.4298447265625,-5.127598762512207,1.9309436082839966,-1.7861685752868652
1771038050695810800,1.448810791015625,-2.6975789070129395,-0.0977383628487587,-1.2333359718322754
1771038050714776800,1.46777685546875,-0.021380268037319183,0.5760455131530762,-0.9107993841171265
1771038050733742800,1.486742919921875,1.3384047746658325,1.4605777263641357,-0.2620609998703003
1771038050752709000,1.505709228515625,1.6927063465118408,1.9120067358016968,0.22174391150474548
1771038050771675100,1.524675048828125,2.076329469680786,4.355465888977051,1.1239912509918213
1771038050830916600,1.58391650390625,3.819126605987549,2.344499111175537,3.5283548831939697
1771038050849883000,1.6028828125,3.341430425643921,-0.2968802750110626,2.7513349056243896
1771038050868849000,1.621848876953125,3.4855945110321045,0.06719512492418289,1.6701042652130127
1771038050887815000,1.64081494140625,3.1777186393737793,-0.3237583339214325,0.6988292932510376
1771038050906781000,1.659781005859375,2.525315046310425,-1.6297872066497803,-0.3237583339214325
1771038050925747000,1.678746826171875,2.0402884483337402,-3.911978006362915,-1.6481131315231323
1771038050944713200,1.697713134765625,1.6969823837280273,-4.660898208618164,-3.2595744132995605
1771038050963679200,1.71667919921875,1.8008294105529785,-4.619359493255615,-3.4721553325653076
1771038050982645200,1.735645263671875,1.9792019128799438,-5.373166561126709,-3.171609878540039
1771038051001611300,1.754611328125,2.2027783393859863,-4.707324028015137,-2.0415101051330566
1771038051020577500,1.77357763671875,1.915671944618225,-3.3243260383605957,-2.383594274520874
1771038051039543600,1.79254345703125,2.377485752105713,-4.107454776763916,-3.306000232696533
1771038051058509600,1.811509521484375,1.1777472496032715,-2.3872594833374023,-4.681667804718018
1771038051077475600,1.8304755859375,-0.27488914132118225,-2.654818296432495,-4.166097640991211
1771038051096441600,1.849441650390625,-1.3390156030654907,-2.5546364784240723,-4.668228626251221
1771038051115408000,1.868407958984375,-2.2027783393859863,-1.6530001163482666,-3.777587890625
1771038051134374000,1.887373779296875,-3.573559045791626,-0.2003636509180069,-1.9486587047576904
1771038051153340000,1.90633984375,-5.699368476867676,1.2082905769348145,-0.4373791813850403
1771038051172306000,1.925305908203125,-7.990111351013184,3.6529712677001953,-0.043982263654470444
1771038051191272000,1.94427197265625,-9.305913925170898,4.960222244262695,0.9798271059989929
1771038051210238200,1.96323828125,-9.524603843688965,4.1868672370910645,2.2455389499664307
1771038051229204200,1.982204345703125,-7.413455009460449,2.7232351303100586,1.2815942764282227
1771038051248170200,2.001170166015625,-3.640753984451294,0.9285144805908203,-0.3225366175174713
1771038051267136300,2.02013623046875,-0.7721330523490906,1.897346019744873,-0.7244856357574463
1771038051286102500,2.0391025390625,0.02932151034474373,3.349982500076294,-0.23823726177215576
1771038051305068500,2.058068603515625,-0.8368847370147705,1.7666209936141968,-0.27000224590301514
1771038051324034600,2.07703466796875,-1.9608759880065918,0.4764745235443115,-0.7904590368270874
1771038051343000600,2.09600048828125,-2.7879867553710938,-1.4660754203796387,-1.0177006721496582
1771038051361966600,2.114966552734375,-2.780656576156616,-3.623649835586548,-1.0030399560928345
1771038051380932900,2.133932861328125,-2.2650866508483887,-8.605862617492676,-1.7043126821517944
1771038051399899000,2.15289892578125,-1.8765766620635986,-9.819040298461914,-2.012188673019409
1771038051418865000,2.171864990234375,-1.5528182983398438,-7.547845363616943,-1.0971131324768066
1771038051437831000,2.190830810546875,-1.6102395057678223,-4.021933555603027,0.3787361681461334
1771038051456797200,2.209797119140625,-1.8741331100463867,-1.6872085332870483,1.2608249187469482
1771038051475763200,2.22876318359375,-2.086714029312134,0.9749401807785034,2.160017967224121
1771038051494729200,2.247729248046875,-1.0030399560928345,-2.316399335861206,0.11606431007385254
1771038051513695200,2.2666953125,2.4483461380004883,-5.701811790466309,-1.7263038158416748
1771038051532661500,2.28566162109375,7.414676666259766,6.363989353179932,9.107994079589844
1771038051551627500,2.30462744140625,2.2418737411499023,1.4282019138336182,4.86737060546875
1771038051570593500,2.323593505859375,1.5406010150909424,0.03176496922969818,1.3829978704452515
1771038051589559600,2.3425595703125,1.6872085332870483,0.05864302068948746,-0.15271618962287903
1771038051608525800,2.36152587890625,1.9584324359893799,-0.5925388336181641,-0.5925388336181641
1771038051627491800,2.380491943359375,1.8069380521774292,-2.313955783843994,-0.8148936033248901
1771038051646457900,2.399457763671875,0.9798271059989929,-1.802051067352295,-1.0103703737258911
1771038051665424000,2.418423828125,0.2834412455558777,-0.12461641430854797,-1.5308271646499634
1771038051684390100,2.43739013671875,-0.15515965223312378,0.8356630206108093,-2.4153592586517334
1771038051703356200,2.456356201171875,-0.3274235129356384,2.1416919231414795,-2.6694791316986084
1771038051722322200,2.475322265625,-0.39339691400527954,3.316995859146118,-2.4776675701141357
1771038051741288400,2.494288330078125,-0.7745765447616577,5.386605739593506,1.9230023622512817
1771038051760254500,2.51325439453125,-1.1398736238479614,2.6340489387512207,9.110437393188477
1771038051779220500,2.532220458984375,-2.1355831623077393,-8.18070125579834,7.635809898376465
1771038051798186800,2.551186767578125,-0.7892373204231262,-4.745197772979736,-1.5063925981521606
1771038051817152800,2.57015283203125,1.3866630792617798,0.2883281707763672,-7.181326389312744
1771038051836118800,2.589118896484375,1.5296053886413574,3.5075855255126953,-8.005993843078613
1771038051855084800,2.608084716796875,1.284037709236145,4.405556678771973,-6.62666130065918
1771038051874051000,2.627051025390625,0.7073814272880554,5.229002475738525,-4.0805768966674805
1771038051893017000,2.64601708984375,-0.28466299176216125,5.380496978759766,-1.138651967048645
1771038051911983000,2.664983154296875,-1.3988803625106812,4.283383846282959,2.587623119354248
1771038051930949400,2.683949462890625,0.12217295914888382,-0.2761108875274658,4.024377346038818
1771038051949915400,2.702915283203125,2.718348264694214,-1.062904715538025,-2.533867120742798
1771038051968881400,2.72188134765625,-0.46059203147888184,2.4886631965637207,-11.855663299560547
1771038051987847700,2.74084765625,-0.7550288438796997,-6.417745590209961,-2.511875867843628
1771038052006813700,2.759813720703125,-0.19792018830776215,-0.7379246354103088,-2.0500621795654297
1771038052025779700,2.77877978515625,0.6120865345001221,3.4098472595214844,-2.51431941986084
1771038052044746000,2.79774609375,1.0702351331710815,3.2070400714874268,-0.9847140312194824
1771038052063712000,2.8167119140625,1.0775654315948486,-0.7024945020675659,2.5106542110443115
1771038052082678300,2.83567822265625,0.8271108865737915,-1.3891065120697021,3.015228509902954
1771038052101644300,2.854644287109375,0.4838049113750458,-0.647516667842865,2.1807873249053955
1771038052120610300,2.8736103515625,0.3017672002315521,-0.4630354940891266,1.8179335594177246
1771038052139576600,2.89257666015625,0.10873392969369888,-1.3854413032531738,2.313955783843994
1771038052158542600,2.91154248046875,-0.27366742491722107,-2.4605634212493896,2.66581392288208
1771038052177508600,2.930508544921875,-0.544891357421875,-2.355494499206543,2.392146587371826
1771038052196475000,2.949474853515625,-0.5119046568870544,-2.51431941986084,2.748891592025757
1771038052215441000,2.96844091796875,-0.4630354940891266,-3.5747807025909424,3.6224281787872314
1771038052234407200,2.9874072265625,0.8356630206108093,-7.463545799255371,6.042674541473389
1771038052253373200,3.006373291015625,3.265683174133301,2.3066253662109375,5.01886510848999
1771038052272339200,3.025339111328125,2.2430953979492188,2.2895212173461914,3.045771837234497
1771038052291305500,3.044305419921875,1.6859867572784424,-2.431241750717163,1.9083415269851685
1771038052310271500,3.063271484375,0.3946186602115631,-4.824610233306885,1.535714030265808
1771038052329237800,3.08223779296875,-1.1349867582321167,-4.475195407867432,0.2101374864578247
1771038052348203800,3.101203857421875,-1.6029092073440552,-2.7794346809387207,-1.1875211000442505
1771038052367170000,3.120170166015625,-1.276707410812378,-0.06719512492418289,-1.341459035873413
1771038052386136000,3.139135986328125,-0.8503237962722778,2.0549490451812744,-1.102000117301941
1771038052405102000,3.15810205078125,-0.5522217750549316,1.9853105545043945,-1.51616632938385
1771038052424068400,3.177068359375,-0.2993237376213074,0.9590576887130737,-2.3897030353546143
1771038052443034600,3.19603466796875,0.08674279600381851,1.7580687999725342,-2.196669816970825
1771038052462000600,3.215000732421875,0.4874700903892517,3.210705280303955,-1.9498803615570068
1771038052480967000,3.233966796875,0.7696896195411682,4.120893955230713,-1.703091025352478
1771038052499933000,3.252932861328125,0.9969313144683838,0.7024945020675659,1.37078058719635
1771038052518899200,3.271899169921875,0.750141978263855,-3.090975761413574,1.5320488214492798
1771038052537865200,3.290865234375,0.5815432667732239,-0.27855435013771057,-0.44470956921577454
1771038052556831500,3.30983154296875,-0.06352993845939636,6.036565780639648,-1.2290599346160889
1771038052575797500,3.328797607421875,-1.275485634803772,9.992526054382324,-1.821598768234253
1771038052594763800,3.347763671875,-1.868024468421936,6.90765905380249,-4.025599002838135
1771038052613729800,3.366729736328125,-1.5552617311477661,3.5747807025909424,-4.764745235443115
1771038052632696000,3.385696044921875,-0.9834923148155212,1.3768892288208008,-3.0775368213653564
1771038052651662000,3.404662109375,-1.8350378274917603,-0.4679224193096161,0.6988292932510376
1771038052670628400,3.42362841796875,-2.883281707763672,-3.447720766067505,2.5668537616729736
1771038052689594600,3.4425947265625,-1.469740629196167,-4.5643815994262695,-1.5760310888290405
1771038052708560600,3.461560546875,-2.6059491634368896,4.287048816680908,-11.464710235595703
1771038052727527000,3.48052685546875,-1.8387030363082886,6.717069149017334,-2.9773550033569336
1771038052746493000,3.499492919921875,-0.35063639283180237,1.7446298599243164,0.6059778332710266
1771038052765459200,3.518459228515625,0.034208428114652634,-0.9908226728439331,-0.916297197341919
1771038052784425200,3.53742529296875,-0.16859868168830872,-2.199113130569458,-0.2309068888425827
1771038052803391500,3.5563916015625,-0.11484257876873016,-1.5650355815887451,1.331685185432434
1771038052822357800,3.575357666015625,0.08552107214927673,0.9590576887130737,2.2223260402679443
1771038052841323800,3.59432373046875,0.3042106628417969,2.776991367340088,2.316399335861206
1771038052860290000,3.6132900390625,0.5888736248016357,3.065319538116455,2.839299440383911
1771038052879256300,3.63225634765625,0.6695078015327454,2.151465654373169,3.7629270553588867
1771038052898222300,3.651222412109375,0.3384190797805786,-0.2467893660068512,4.061028957366943
1771038052917188600,3.670188720703125,0.059864748269319534,-1.8289291858673096,3.6871798038482666
1771038052936155000,3.68915478515625,0.09162971377372742,-2.283412456512451,3.400073289871216
1771038052955121000,3.708120849609375,0.2834412455558777,-2.9712462425231934,2.948033332824707
1771038052974087200,3.727087158203125,0.8014546036720276,-2.4434590339660645,0.7660244107246399
1771038052993053400,3.746053466796875,2.783099889755249,0.94439697265625,3.842339515686035
1771038053012019500,3.76501953125,2.307847023010254,4.067137718200684,2.472780704498291
1771038053030985700,3.78398583984375,0.8857539296150208,1.072678565979004,0.998153030872345
1771038053049952000,3.802951904296875,0.647516667842865,-3.4440555572509766,1.9743149280548096
1771038053068918300,3.821918212890625,0.04520399495959282,-5.462352752685547,2.455676317214966
1771038053087884300,3.84088427734375,-0.8063415288925171,-4.549720764160156,1.8032728433609009
1771038053106850600,3.8598505859375,-1.2877029180526733,-3.14595365524292,0.9883792400360107
1771038053125816800,3.87881689453125,-1.1447606086730957,-1.616348147392273,0.15149445831775665
1771038053144783000,3.897783203125,-0.7953459620475769,-0.9101884961128235,-1.2302817106246948
1771038053163749000,3.9167490234375,-0.5656607747077942,-1.2290599346160889,-2.4459025859832764
1771038053182715400,3.93571533203125,-0.09651663154363632,-0.24434591829776764,-1.8252639770507812
1771038053201681700,3.954681640625,0.4105011224746704,1.37078058719635,-0.758694052696228
1771038053220648000,3.97364794921875,0.8552106618881226,2.3457207679748535,-0.5119046568870544
1771038053239614000,3.992614013671875,1.166751742362976,-4.166097640991211,0.4153880476951599
1771038053258580200,4.011580322265625,0.9309579133987427,-8.412829399108887,3.673740863800049
1771038053277546500,4.03054638671875,1.1252129077911377,-5.854527950286865,1.4025455713272095
1771038053296512800,4.0495126953125,1.5992439985275269,4.142884731292725,-1.8228205442428589
1771038053315479000,4.06847900390625,1.0409135818481445,11.088417053222656,-5.5087785720825195
1771038053334445000,4.087445068359375,-0.4312705397605896,10.073160171508789,-9.771392822265625
1771038053353411300,4.106411376953125,-1.8423681259155273,8.008437156677246,-10.092707633972168
1771038053372377600,4.125377685546875,-0.8894191384315491,4.862483501434326,-2.8564038276672363
1771038053391343900,4.14434375,-0.6988292932510376,0.546113133430481,6.071995735168457
1771038053410310100,4.16331005859375,-4.55460786819458,-4.37501335144043,7.4195637702941895
1771038053429276400,4.1822763671875,-6.1624040603637695,-19.890979766845703,-7.842281818389893
1771038053448242700,4.20124267578125,-0.9138537049293518,-7.66635274887085,-9.998634338378906
1771038053467208700,4.220208740234375,0.6389645338058472,7.181326389312744,-1.905898094177246
1771038053486175000,4.239175048828125,2.1111485958099365,3.9584038257598877,-1.4086542129516602
1771038053505141200,4.258141357421875,2.017075538635254,2.386037826538086,0.3066541254520416
1771038053524107500,4.277107421875,1.693317174911499,1.5858049392700195,1.8619158267974854
1771038053543073800,4.29607373046875,1.656665325164795,-0.8674280047416687,3.905869483947754
1771038053562040000,4.3150400390625,1.7776165008544922,-1.4367539882659912,4.288270950317383
1771038053581006300,4.33400634765625,1.7666209936141968,-0.050090912729501724,3.5002551078796387
1771038053599972400,4.352972412109375,1.6701042652130127,1.1129956245422363,2.9883503913879395
1771038053618938600,4.371938720703125,1.4563016891479492,0.9505056142807007,2.8344125747680664
1771038053637905000,4.39090478515625,1.091004490852356,-0.7318159937858582,3.467268466949463
1771038053656871200,4.40987109375,0.8735366463661194,-2.0268492698669434,4.004829406738281
1771038053675837400,4.42883740234375,0.411722868680954,-2.7696609497070312,2.748891592025757
1771038053694803700,4.4478037109375,1.6591087579727173,1.6334524154663086,7.545401573181152
1771038053713770000,4.46677001953125,2.911381483078003,8.175814628601074,4.3322529792785645
1771038053732736300,4.485736328125,1.674991250038147,-0.9871574640274048,0.2834412455558777
1771038053751702500,4.50470263671875,0.8283326625823975,-6.183173179626465,2.6047275066375732
1771038053770668800,4.523668701171875,-0.38240134716033936,-6.896663188934326,2.6731443405151367
1771038053789635000,4.542635009765625,-1.3011419773101807,-6.701186656951904,1.0311397314071655
1771038053808601300,4.561601318359375,-1.5015056133270264,-4.83927059173584,0.9822705388069153
1771038053827567600,4.580567626953125,-0.31031930446624756,-2.9932374954223633,1.4098758697509766
1771038053846534000,4.599533935546875,1.3182462453842163,-3.1557273864746094,0.2724456787109375
1771038053865500200,4.618500244140625,1.9572107791900635,-2.3713769912719727,-1.4049890041351318
1771038053884466400,4.637466552734375,2.598618745803833,-0.8723149299621582,-1.3561197519302368
1771038053903432700,4.6564326171875,3.886321783065796,-0.1331685185432434,-2.8735079765319824
1771038053922399000,4.67539892578125,4.537503719329834,1.321911334991455,-5.222893714904785
1771038053941365200,4.694365234375,1.8619158267974854,-7.002954006195068,1.760512351989746
1771038053960331500,4.71333154296875,-0.17226386070251465,-3.2375833988189697,2.620609998703003
1771038053979297800,4.7322978515625,-0.8307760953903198,8.856317520141602,1.0238093137741089
1771038053998264000,4.75126416015625,-1.8643592596054077,10.765880584716797,-1.7959424257278442
1771038054017230300,4.770230224609375,-3.134958028793335,5.915614604949951,-6.194169044494629
1771038054036196600,4.789196533203125,-4.0585856437683105,4.794066905975342,-7.593049049377441
1771038054055163000,4.808162841796875,-3.9217519760131836,4.667006969451904,-6.194169044494629
1771038054074129200,4.827129150390625,-2.869842767715454,0.03543015569448471,-2.070831537246704
1771038054102578400,4.855578369140625,-3.3512041568756104,-5.872853755950928,4.401891708374023
1771038054121544700,4.874544677734375,-3.942521333694458,-8.561881065368652,-7.144674301147461
1771038054140511000,4.893510986328125,-1.362228512763977,-3.595550060272217,-9.933882713317871
1771038054159477200,4.912477294921875,-0.046425722539424896,1.9559890031814575,-0.8723149299621582
1771038054178443800,4.93144384765625,0.9101884961128235,1.2522728443145752,-1.9669846296310425
1771038054197409800,4.950409912109375,1.0861176252365112,0.9602794051170349,-2.439793825149536
1771038054216376300,4.969376220703125,0.6291907429695129,0.32009315490722656,1.2437206506729126
1771038054235342600,4.988342529296875,0.49602219462394714,-0.1893680840730667,4.004829406738281
1771038054254308900,5.007308837890625,0.5522217750549316,1.071456789970398,3.191157579421997
1771038054273275100,5.026275146484375,0.9187406301498413,2.2418737411499023,1.8936808109283447
1771038054292241400,5.045241455078125,1.2192860841751099,2.2650866508483887,1.1447606086730957
1771038054311207700,5.064207763671875,1.147204041481018,0.4776962697505951,1.3744457960128784
1771038054330174000,5.083174072265625,0.8368847370147705,-3.006676435470581,3.1789402961730957
1771038054349140200,5.10214013671875,0.6084213256835938,-4.8075056076049805,4.238179683685303
1771038054368106500,5.1211064453125,0.26389357447624207,-5.308414936065674,4.233293056488037
1771038054387072800,5.14007275390625,-0.0818558782339096,-3.182605504989624,3.3829691410064697
1771038054406039000,5.1590390625,0.03543015569448471,5.7995500564575195,6.00113582611084
1771038054425005300,5.17800537109375,1.3267983198165894,4.741532325744629,2.5912883281707764
1771038054443971600,5.1969716796875,2.0024147033691406,-0.4557051360607147,1.2131774425506592
1771038054462938000,5.215938232421875,0.7269290685653687,-2.6926920413970947,2.1697916984558105
1771038054481904400,5.234904296875,-0.5216785073280334,-5.655385971069336,2.9712462425231934
1771038054500870700,5.25387060546875,-1.109330415725708,-5.819097995758057,2.455676317214966
1771038054519837000,5.2728369140625,-0.9101884961128235,-3.7519314289093018,1.7934989929199219
1771038054538803200,5.29180322265625,-0.043982263654470444,-1.7873903512954712,1.3292417526245117
1771038054557769500,5.31076953125,1.0445787906646729,-1.5027273893356323,0.471587598323822
1771038054576735700,5.32973583984375,1.9633194208145142,-1.3756674528121948,-1.536935806274414
1771038054595702000,5.348701904296875,2.285856008529663,-0.8124501705169678,-1.8936808109283447
1771038054614668300,5.367668212890625,2.6340489387512207,0.2883281707763672,-1.1801908016204834
1771038054633634600,5.386634521484375,3.506363868713379,0.2834412455558777,-2.3396120071411133
1771038054652600800,5.405600830078125,4.158767223358154,-1.4563016891479492,-3.9913904666900635
1771038054671567400,5.4245673828125,2.263864755630493,-5.710363864898682,1.2363903522491455
1771038054690533600,5.44353369140625,0.695164144039154,-4.8881402015686035,2.3286166191101074
1771038054709500000,5.4625,-0.0256563201546669,4.7317585945129395,1.9315544366836548
1771038054728466200,5.481466064453125,-1.1410953998565674,13.459794998168945,0.6621774435043335
1771038054747432400,5.500432373046875,-2.6108360290527344,10.301623344421387,-3.6676321029663086
1771038054766398700,5.519398681640625,-4.068359375,4.956556797027588,-7.655357360839844
1771038054785365200,5.538365234375,-4.38112211227417,3.2766785621643066,-7.724996089935303
1771038054804331500,5.55733154296875,-3.364643096923828,-0.5595521330833435,-3.4770424365997314
1771038054823297800,5.5762978515625,-3.2070400714874268,-4.610807418823242,3.1276276111602783
1771038054842264000,5.59526416015625,-3.7226099967956543,-6.205164432525635,2.2528693675994873
1771038054861230300,5.614230224609375,-3.464824914932251,-6.564352989196777,-12.682774543762207
1771038054880196600,5.633196533203125,-0.2675587832927704,3.5356853008270264,-5.732355117797852
1771038054899163000,5.652162841796875,0.9700532555580139,1.879020094871521,-0.22479823231697083
1771038054918129200,5.671129150390625,1.1740821599960327,-0.42882707715034485,-1.2266165018081665
1771038054937095400,5.690095458984375,0.8674280047416687,-0.11117739230394363,-1.1447606086730957
1771038054956062000,5.70906201171875,0.6487383842468262,0.16615521907806396,1.1032217741012573
1771038054975028200,5.7280283203125,0.7171552777290344,1.6041308641433716,3.7983572483062744
1771038054993994500,5.746994384765625,1.0641264915466309,3.4550511837005615,3.1752750873565674
1771038055012960800,5.765960693359375,1.362228512763977,3.579667568206787,2.051283836364746
1771038055031927000,5.784927001953125,1.3267983198165894,2.411694049835205,1.6407828330993652
1771038055050893300,5.803893310546875,0.84177166223526,-1.1630865335464478,2.9431464672088623
1771038055069859600,5.822859619140625,0.5131264328956604,-3.8435611724853516,3.864330530166626
1771038055088826000,5.841826171875,0.5705476999282837,-4.6315765380859375,3.987725257873535
1771038055107792400,5.86079248046875,0.5962040424346924,-4.412887096405029,3.827678680419922
1771038055126758700,5.879758544921875,1.0054833889007568,0.2370155304670334,3.894873857498169
1771038055145725000,5.898724853515625,1.617569923400879,5.412261962890625,4.723206520080566
1771038055164691200,5.917691162109375,1.2302817106246948,0.8393282294273376,1.802051067352295
1771038055183657500,5.936657470703125,1.2253947257995605,-1.51616632938385,2.260199785232544
1771038055202624000,5.9556240234375,-0.07086031138896942,-4.8466010093688965,3.219257354736328
1771038055221590300,5.97459033203125,-0.9957095980644226,-5.637060165405273,2.855181932449341
1771038055240556500,5.993556640625,-1.2339468002319336,-4.0952372550964355,2.1978914737701416
1771038055259522800,6.012522705078125,-0.8051197528839111,-2.2418737411499023,1.6969823837280273
1771038055278489000,6.031489013671875,0.07330377399921417,-1.1520910263061523,0.8820887207984924
1771038055297455600,6.05045556640625,1.2400555610656738,-0.3848448097705841,-1.1313215494155884
1771038055316422000,6.069421875,2.1306962966918945,-0.627968966960907,-2.475224018096924
1771038055335388200,6.08838818359375,2.506989002227783,-0.07574722915887833,-1.422093152999878
1771038055354354400,6.1073544921875,2.9883503913879395,0.4874700903892517,-1.324354887008667
1771038055373320700,6.12632080078125,3.693288564682007,0.6939423680305481,-4.527729511260986
1771038055392287000,6.145286865234375,2.4630067348480225,-2.257756233215332,0.9321796298027039
1771038055411253200,6.164253173828125,1.5332705974578857,-2.6816964149475098,2.9077162742614746
1771038055430219800,6.1832197265625,1.0409135818481445,4.565603256225586,1.588248372077942
1771038055449186000,6.20218603515625,-0.657290518283844,11.689508438110352,-0.3078758418560028
1771038055468152300,6.22115234375,-2.5827362537384033,8.04753303527832,-4.395782947540283
1771038055487118600,6.24011865234375,-4.003607749938965,5.103164196014404,-7.183769702911377
1771038055506084900,6.2590849609375,-4.663341522216797,5.0249738693237305,-6.769603252410889
1771038055525051400,6.278051513671875,-4.092793941497803,1.712864875793457,-2.998124361038208
1771038055544017400,6.297017333984375,-3.677406072616577,-4.207636833190918,3.673740863800049
1771038055562984000,6.31598388671875,-4.508182048797607,-9.863022804260254,2.388481378555298
1771038055581950200,6.3349501953125,-3.6566364765167236,-13.277756690979004,-11.691951751708984
1771038055600916500,6.35391650390625,-0.48991355299949646,5.634616851806641,-4.515512466430664
1771038055619882800,6.3728828125,1.2266165018081665,4.921126842498779,-1.1643083095550537
1771038055638849000,6.39184912109375,1.858250617980957,0.4740310609340668,-2.372598886489868
1771038055657815600,6.410815673828125,1.6346741914749146,-0.7648026943206787,-1.3072506189346313
1771038055676781800,6.42978173828125,1.1630865335464478,-1.053130865097046,2.2003350257873535
1771038055695748000,6.448748046875,1.0189224481582642,0.5106829404830933,3.649306297302246
1771038055714714400,6.46771435546875,1.1972949504852295,2.2895212173461914,2.492328405380249
1771038055733680600,6.4866806640625,1.441640853881836,2.7647740840911865,1.7544035911560059
1771038055752647200,6.505647216796875,1.3646719455718994,1.9511021375656128,1.7812817096710205
1771038055771613400,6.524613525390625,1.0225876569747925,-0.11239911615848541,2.2956297397613525
1771038055790579700,6.543579833984375,0.5803215503692627,-2.976133108139038,3.651749610900879
1771038055809546000,6.5625458984375,0.5485565662384033,-4.014603137969971,4.127002239227295
1771038055828512300,6.58151220703125,0.4508182108402252,-3.9364125728607178,4.361574649810791
1771038055847478800,6.600478759765625,0.20402882993221283,-1.4306453466415405,3.3939647674560547
1771038055866445000,6.619445068359375,0.18570289015769958,2.592510223388672,5.612625598907471
1771038055885411300,6.638411376953125,1.4648537635803223,3.61021089553833,1.2180644273757935
1771038055904377600,6.657377685546875,1.6200133562088013,-0.07086031138896942,1.2253947257995605
1771038055923344000,6.67634375,0.5216785073280334,-4.497186660766602,2.6218316555023193
1771038055942310400,6.695310302734375,-0.4471530318260193,-5.6175127029418945,2.6865832805633545
1771038055961276700,6.714276611328125,-0.7977893948554993,-4.249175548553467,1.841146469116211
1771038055980243000,6.733242919921875,-0.4276053309440613,-2.1282529830932617,0.9505056142807007
1771038055999209200,6.752209228515625,0.23212862014770508,-0.27855435013771057,0.27366742491722107
1771038056018175500,6.771175537109375,1.1313215494155884,-0.050090912729501724,-0.962722897529602
1771038056037141800,6.790141845703125,1.9278892278671265,-0.998153030872345,-1.5125012397766113
1771038056056108300,6.8091083984375,2.0830488204956055,-0.40317076444625854,-0.526565432548523
1771038056075074600,6.828074462890625,2.3872594833374023,0.6927206516265869,-0.6511818766593933
1771038056094040800,6.847040771484375,3.2094836235046387,1.1618647575378418,-4.3493571281433105
1771038056113007000,6.866007080078125,1.8032728433609009,-3.5918848514556885,1.8130466938018799
1771038056131973400,6.884973388671875,0.8845322132110596,-3.3683083057403564,2.640157461166382
1771038056150940000,6.90393994140625,0.5351175665855408,5.920501232147217,1.9242240190505981
1771038056169906200,6.92290625,-0.536339282989502,12.1293306350708,-0.06841685622930527
1771038056188872400,6.94187255859375,-2.238208532333374,10.067051887512207,-4.550942420959473
1771038056207838700,6.960838623046875,-4.550942420959473,6.554579257965088,-8.277217864990234
1771038056226805000,6.979804931640625,-5.342623233795166,4.9553351402282715,-8.141605377197266
1771038056245771500,6.998771484375,-3.384190797805786,0.3738492429256439,-2.598618745803833
1771038056264737800,7.01773779296875,-2.691470146179199,-4.609585762023926,4.19786262512207
1771038056283704000,7.0367041015625,-4.212523460388184,-8.123279571533203,3.1227407455444336
1771038056302670300,7.05567041015625,-4.621802806854248,-10.85628890991211,-13.316852569580078
1771038056321636600,7.07463671875,-0.8808670043945312,8.836770057678223,-4.605920314788818
1771038056340603100,7.09360302734375,0.9700532555580139,6.035344123840332,-0.9004147052764893
1771038056359569400,7.1125693359375,1.2779290676116943,1.321911334991455,-1.4489712715148926
1771038056378535700,7.13153564453125,0.9944878816604614,-0.19914191961288452,-0.15760311484336853
1771038056397502000,7.150501953125,0.7550288438796997,0.4581485986709595,1.2119556665420532
1771038056416468200,7.16946826171875,0.833219587802887,3.288896083831787,2.4239113330841064
1771038056435434800,7.188434814453125,0.9175189137458801,4.503294944763184,2.283412456512451
1771038056454401000,7.207401123046875,0.8747583627700806,3.7678139209747314,2.014631986618042
1771038056473367300,7.2263671875,0.7831286191940308,1.8802417516708374,2.1441354751586914
1771038056492333800,7.245333740234375,0.7391464114189148,-0.46425724029541016,2.598618745803833
1771038056511299800,7.2642998046875,0.7391464114189148,-2.5546364784240723,3.8325655460357666
1771038056530266400,7.283266357421875,0.8600975871086121,-3.392742872238159,4.395782947540283
1771038056549232600,7.302232666015625,0.8051197528839111,-4.040259838104248,4.470308303833008
1771038056568199000,7.321198974609375,0.8600975871086121,-1.0323615074157715,2.926042318344116
1771038056587165200,7.340165283203125,1.8362594842910767,5.893623352050781,1.6591087579727173
1771038056606131500,7.35913134765625,2.6804747581481934,2.3738205432891846,1.1410953998565674
1771038056625098000,7.378097900390625,1.3671153783798218,0.2309068888425827,1.663995623588562
1771038056644064300,7.397064208984375,-0.5338957905769348,-3.6114325523376465,3.117853879928589
1771038056663030500,7.416030517578125,-1.3634501695632935,-6.1123127937316895,4.150215148925781
1771038056681996800,7.434996826171875,-1.266933560371399,-5.480679035186768,3.6566364765167236
1771038056700963000,7.453963134765625,-0.6731730103492737,-4.067137718200684,2.5864014625549316
1771038056719929600,7.4729296875,0.7391464114189148,-2.73545241355896,1.9010112285614014
1771038056738896000,7.491895751953125,2.0525057315826416,-1.5858049392700195,0.4373791813850403
1771038056757862100,7.510862060546875,2.9492552280426025,-1.2815942764282227,-1.7153083086013794
1771038056776828400,7.529828369140625,3.0298893451690674,-1.1142174005508423,-2.3066253662109375
1771038056795794700,7.548794677734375,2.7904303073883057,-0.287106454372406,-1.5613703727722168
1771038056814761200,7.56776123046875,3.3096654415130615,0.6780598759651184,-3.6847362518310547
1771038056833727500,7.5867275390625,2.6865832805633545,1.7861685752868652,-1.4917317628860474
1771038056852693800,7.60569384765625,1.3109158277511597,-2.2931864261627197,3.185049057006836
1771038056871660000,7.624659912109375,0.6633991599082947,0.8625410795211792,2.0195188522338867
1771038056890626300,7.643626220703125,0.5302306413650513,10.59117317199707,-0.16249002516269684
1771038056909592800,7.6625927734375,-1.2461642026901245,10.867284774780273,-3.1887142658233643
1771038056928559000,7.68155908203125,-3.137401580810547,6.811142444610596,-6.90155029296875
1771038056947525400,7.700525390625,-5.044521331787109,5.108051300048828,-8.365181922912598
1771038056966491600,7.71949169921875,-5.092168807983398,2.1978914737701416,-6.029235363006592
1771038056985458200,7.738458251953125,-3.5784459114074707,-3.8716609477996826,1.0299180746078491
1771038057004424400,7.757424560546875,-5.141037940979004,-7.720108985900879,6.095208644866943
1771038057023390700,7.776390625,-7.114131450653076,-18.014402389526367,-3.3915212154388428
1771038057042357000,7.79535693359375,-1.8545855283737183,-2.3848161697387695,-7.911920547485352
1771038057061323300,7.8143232421875,1.5100576877593994,6.927206516265869,-2.8820600509643555
1771038057080289500,7.83328955078125,2.2626430988311768,1.8289291858673096,-2.3738205432891846
1771038057099256000,7.852256103515625,1.8093814849853516,-0.5033525824546814,-1.7947207689285278
1771038057118222300,7.871222412109375,1.25715970993042,-0.36285367608070374,0.07452550530433655
1771038057137188600,7.890188720703125,1.1068869829177856,0.5729911923408508,2.609614372253418
1771038057156155100,7.909155029296875,1.3976585865020752,1.85092031955719,3.392742872238159
1771038057175121400,7.928121337890625,1.7263038158416748,2.612057685852051,2.4886631965637207
1771038057194087700,7.947087646484375,1.802051067352295,2.5130977630615234,1.8851287364959717
1771038057213054000,7.966053955078125,1.5296053886413574,1.5540399551391602,1.831372618675232
1771038057232020200,7.985020263671875,0.9468404054641724,-0.7354812026023865,2.9639158248901367
1771038057250986800,8.00398681640625,0.7367029190063477,-2.1563527584075928,3.7653706073760986
1771038057269953000,8.022953125,0.831997811794281,-2.926042318344116,4.268723011016846
1771038057288919300,8.041919189453125,0.8833104968070984,-1.9901974201202393,3.905869483947754
1771038057307885600,8.060885498046876,0.3237583339214325,-0.33597561717033386,5.3548407554626465
1771038057326851800,8.079851806640624,-0.01954767294228077,0.6084213256835938,6.152629852294922
1771038057345818400,8.098818359375,0.8735366463661194,1.830150842666626,1.2534945011138916
1771038057364784600,8.11778466796875,0.831997811794281,-2.025627613067627,2.475224018096924
1771038057383751000,8.1367509765625,-0.4874700903892517,-6.028013706207275,4.298044681549072
1771038057402717200,8.15571728515625,-1.0189224481582642,-4.72809362411499,3.087310552597046
1771038057421683500,8.174683349609374,-0.5106829404830933,-3.1728317737579346,1.6810998916625977
1771038057440650000,8.19364990234375,0.27488914132118225,-2.0500621795654297,0.8796452879905701
1771038057459616300,8.2126162109375,1.1545344591140747,-1.2534945011138916,-0.0769689604640007
1771038057478582500,8.23158251953125,2.123365879058838,-0.2919933497905731,-1.5234967470169067
1771038057497548800,8.250548828125,2.2027783393859863,-0.6927206516265869,-1.7592905759811401
1771038057516515000,8.26951513671875,1.740964651107788,0.3897317349910736,-0.9663881063461304
1771038057535481600,8.288481689453125,1.8668028116226196,2.7391176223754883,-3.58821964263916
1771038057554448000,8.30744775390625,1.9107850790023804,3.397629976272583,-4.566824913024902
1771038057573414100,8.3264140625,0.5326740741729736,-1.907119870185852,2.0879359245300293
1771038057592380400,8.34538037109375,-0.2419024556875229,-2.546084403991699,1.868024468421936
1771038057611346700,8.3643466796875,-0.1637117564678192,6.6962995529174805,0.4422661066055298
1771038057630313000,8.38331298828125,-1.2388337850570679,13.021193504333496,-0.7696896195411682
1771038057649279500,8.402279541015625,-2.6389358043670654,8.293100357055664,-3.7201664447784424
1771038057668245800,8.421245849609376,-3.825235366821289,3.193601131439209,-6.487383842468262
1771038057687212000,8.4402119140625,-3.944964647293091,1.8900156021118164,-7.119018077850342
1771038057706178300,8.45917822265625,-2.4801111221313477,-0.0818558782339096,-3.9608471393585205
1771038057725144600,8.47814453125,-2.8234169483184814,-2.517984628677368,1.1972949504852295
1771038057744110800,8.49711083984375,-4.462977886199951,-6.676752090454102,1.64566969871521
1771038057763077400,8.516077392578126,-4.539947032928467,-13.5880765914917,-11.571001052856445
1771038057782043600,8.535043701171874,-1.1215476989746094,5.137372970581055,-4.55460786819458
1771038057801010000,8.554010009765625,0.8454368710517883,5.48678731918335,-1.4563016891479492
1771038057819976200,8.57297607421875,1.469740629196167,1.8228205442428589,-1.9376630783081055
1771038057838942500,8.5919423828125,1.2913681268692017,0.21746785938739777,-0.06352993845939636
1771038057857909000,8.610908935546876,0.9712749719619751,0.07452550530433655,2.670700788497925
1771038057876875300,8.629875244140624,0.9822705388069153,1.5039490461349487,3.29744815826416
1771038057895841500,8.648841552734375,1.1081087589263916,2.3090689182281494,1.9633194208145142
1771038057914807800,8.667807861328125,1.2315033674240112,2.157574415206909,1.2510510683059692
1771038057933774000,8.686774169921875,1.1325433254241943,1.247385859489441,1.9743149280548096
1771038057952740600,8.70574072265625,0.9126319885253906,-0.34208428859710693,3.6896233558654785
1771038057971707000,8.724706787109374,0.9370665550231934,-1.9327762126922607,4.471529960632324
1771038057990673200,8.743673095703125,0.8698714375495911,-3.1361796855926514,4.686554431915283
1771038058009639400,8.762639404296875,0.5913171172142029,-1.556483507156372,4.344470500946045
1771038058028605700,8.781605712890626,1.255937933921814,6.6572041511535645,3.68595814704895
1771038058047572000,8.800572021484374,2.73545241355896,4.172206401824951,0.4508182108402252
1771038058066538200,8.819538330078124,2.687804937362671,1.0934479236602783,1.6615521907806396
1771038058085504800,8.8385048828125,0.7611374855041504,-3.341430425643921,3.274235248565674
1771038058104471000,8.857470947265625,-0.6902772188186646,-7.142230987548828,4.609585762023926
1771038058123437300,8.876437255859376,-1.0555742979049683,-6.101317405700684,3.9803948402404785
1771038058142403600,8.895403564453124,-1.1081087589263916,-4.473973751068115,2.9211554527282715
1771038058161369900,8.914369873046875,-0.34086254239082336,-3.4807074069976807,2.188117742538452
1771038058180336000,8.933336181640625,1.1728603839874268,-2.0305144786834717,1.0128138065338135
1771038058199302700,8.952302734375,3.0946409702301025,-0.5387827157974243,-1.987753987312317
1771038058218269000,8.97126904296875,4.282162189483643,-0.924849271774292,-2.531423568725586
1771038058237235200,8.990235107421874,4.162432670593262,-1.7324124574661255,-1.5955787897109985
1771038058256201500,9.009201416015625,4.475195407867432,1.8277074098587036,-4.129446029663086
1771038058275167700,9.028167724609375,3.2754569053649902,2.3017385005950928,-2.3322818279266357
1771038058294134000,9.047134033203125,0.8063415288925171,-2.1025965213775635,2.9016077518463135
1771038058313100500,9.0661005859375,-0.42271843552589417,0.6084213256835938,1.5332705974578857
1771038058332066800,9.08506689453125,-1.053130865097046,9.337678909301758,0.14172062277793884
1771038058351033000,9.104033203125,-2.3591597080230713,10.283297538757324,-1.8887939453125
1771038058369999400,9.122999267578125,-4.0805768966674805,6.526479244232178,-5.397601127624512
1771038058388965600,9.141965576171875,-5.272984981536865,4.23573637008667,-6.965080261230469
1771038058407932000,9.160931884765626,-4.453204154968262,2.1441354751586914,-5.839867115020752
1771038058426898200,9.179898193359374,-2.5851798057556152,-1.802051067352295,-2.0292928218841553
1771038058445864400,9.198864501953125,-3.453829526901245,-4.663341522216797,1.6872085332870483
1771038058464831000,9.2178310546875,-6.72806453704834,-16.32963752746582,-4.893026828765869
1771038058483797200,9.23679736328125,-3.1752750873565674,-2.2064435482025146,-4.258949279785156
1771038058502763500,9.255763427734376,0.43982264399528503,4.761080265045166,-2.1563527584075928
1771038058521729800,9.274729736328124,1.2705987691879272,2.726900339126587,-3.783696413040161
1771038058540696000,9.293696044921875,1.0348049402236938,2.687804937362671,-2.8454082012176514
1771038058559662300,9.312662353515625,0.8918625712394714,2.5558581352233887,0.41294458508491516
1771038058578628600,9.331628662109376,0.9969313144683838,0.6841685771942139,2.598618745803833
1771038058597595100,9.35059521484375,1.2107340097427368,0.03176496922969818,2.780656576156616
1771038058616561400,9.3695615234375,1.488066554069519,1.1496474742889404,2.199113130569458
1771038058635527700,9.388527587890625,1.5552617311477661,1.3060288429260254,1.6285655498504639
1771038058654494000,9.407493896484375,1.361006736755371,0.9114102721214294,1.750738501548767
1771038058673460200,9.426460205078126,0.9761618971824646,-0.08796452730894089,3.1618361473083496
1771038058692426500,9.445426513671874,0.8710931539535522,-1.682321548461914,4.453204154968262
1771038058711392800,9.464392822265625,0.8674280047416687,-2.8771731853485107,4.906466007232666
1771038058730359000,9.483359130859375,0.6927206516265869,-2.3994767665863037,4.398226261138916
1771038058749325300,9.5023251953125,0.5131264328956604,5.50511360168457,4.940674304962158
1771038058768291800,9.521291748046876,1.507614254951477,4.167319297790527,1.9535455703735352
1771038058787258000,9.540258056640624,2.2919647693634033,1.3817760944366455,1.50028395652771
1771038058806224400,9.559224365234375,0.4007273018360138,-2.157574415206909,3.503920316696167
1771038058825190700,9.578190673828125,-1.1349867582321167,-6.9504194259643555,5.316967010498047
1771038058844157000,9.597156982421875,-1.693317174911499,-5.681042671203613,4.009716510772705
1771038058863123200,9.616123291015626,-1.0128138065338135,-3.84722638130188,3.1056365966796875
1771038058882089500,9.63508935546875,-0.09407317638397217,-2.939481258392334,2.302960157394409
1771038058901055700,9.6540556640625,1.0873392820358276,-1.977980136871338,0.5192350745201111
1771038058920022000,9.67302197265625,2.9492552280426025,-0.3848448097705841,-1.4819579124450684
1771038058938988300,9.69198828125,4.045146465301514,-0.05253437161445618,-2.1856741905212402
1771038058957954800,9.710954833984376,3.875326156616211,-0.5827649831771851,-1.2828160524368286
1771038058976921000,9.729921142578124,3.654193162918091,1.304807186126709,-3.957181930541992
1771038058995887400,9.748887451171875,3.182605504989624,0.7867938280105591,-5.345067024230957
1771038059014853600,9.767853515625,0.8796452879905701,-4.546055793762207,2.4287984371185303
1771038059033820000,9.78681982421875,-0.4166097939014435,-2.950476884841919,2.73545241355896
1771038059052786200,9.8057861328125,-0.6731730103492737,7.24241304397583,0.9065233469009399
1771038059071752400,9.82475244140625,-1.7482949495315552,14.957634925842285,-0.7098248600959778
1771038059090718700,9.84371875,-3.109301805496216,9.38776969909668,-4.311483383178711
1771038059109685000,9.86268505859375,-4.602255344390869,3.9461865425109863,-7.335264205932617
1771038059128651300,9.8816513671875,-4.616916179656982,1.2693769931793213,-7.863051414489746
1771038059147617500,9.900617431640624,-2.7696609497070312,-1.8997894525527954,-3.990168809890747
1771038059166583800,9.919583740234375,-2.9431464672088623,-3.00056791305542,2.045175313949585
1771038059185550300,9.93855029296875,-5.33162784576416,-5.552761077880859,2.59006667137146
1771038059204516600,9.9575166015625,-4.769632339477539,-13.48056411743164,-9.90822696685791
1771038059223483000,9.97648291015625,-0.2932150959968567,4.841714382171631,-3.842339515686035
1771038059242449200,9.99544921875,1.693317174911499,4.811171054840088,-2.4214680194854736
1771038059261415400,10.01441552734375,1.7140865325927734,1.7263038158416748,-3.4489426612854004
1771038059280381700,10.033381591796875,1.1850776672363281,0.7513636946678162,-1.4819579124450684
1771038059299348000,10.052347900390625,0.9126319885253906,0.05742128938436508,2.0598361492156982
1771038059318314200,10.071314208984376,0.9358448386192322,0.009773836471140385,3.4611599445343018
1771038059337280500,10.090280517578124,1.2107340097427368,1.5247185230255127,2.2223260402679443
1771038059356246800,10.109246826171875,1.546709656715393,2.674365997314453,1.0445787906646729
1771038059375213000,10.128213134765625,1.5540399551391602,2.73545241355896,0.9798271059989929
1771038059394179300,10.147179443359375,1.2925899028778076,1.2400555610656738,2.2113304138183594
1771038059413145600,10.1661455078125,1.1435388326644897,-0.8491020202636719,3.5026986598968506
1771038059432111900,10.18511181640625,1.158199667930603,-2.1783437728881836,4.306596755981445
1771038059451078100,10.204078125,1.1252129077911377,-1.8753548860549927,4.509403705596924
1771038059470044400,10.22304443359375,0.2577849328517914,0.7806851863861084,3.0408849716186523
1771038059489010700,10.2420107421875,0.7806851863861084,3.3939647674560547,4.173428058624268
1771038059507977000,10.26097705078125,2.6132795810699463,1.6041308641433716,1.5406010150909424
1771038059526943200,10.279943115234374,1.265711784362793,-1.8032728433609009,2.489884853363037
1771038059545909500,10.298909423828125,-0.44837474822998047,-6.448288440704346,4.959000110626221
1771038059564876000,10.3178759765625,-1.2730422019958496,-5.943714141845703,4.663341522216797
1771038059583842000,10.336842041015625,-0.9419534802436829,-4.158767223358154,3.327991247177124
1771038059602808600,10.35580859375,-0.4471530318260193,-3.43672513961792,2.8075344562530518
1771038059621774600,10.374774658203124,0.831997811794281,-2.3933682441711426,2.0415101051330566
1771038059640740900,10.393740966796875,2.9626941680908203,-0.3909534513950348,-1.2522728443145752
1771038059659707100,10.41270703125,4.249175548553467,-0.7354812026023865,-2.4483461380004883
1771038059678673700,10.431673583984375,4.38112211227417,-1.8362594842910767,-1.0885610580444336
1771038059697640000,10.450639892578126,4.386009216308594,1.3817760944366455,-4.151436805725098
1771038059716606200,10.469606201171874,3.764148712158203,1.7177517414093018,-4.504517078399658
1771038059735572500,10.488572509765625,0.9517273306846619,-5.00664758682251,2.5082108974456787
1771038059754538800,10.507538818359375,-1.0201442241668701,-3.3438737392425537,2.464228630065918
1771038059773505000,10.526505126953126,-1.5711442232131958,7.514858722686768,0.7562506198883057
1771038059792471300,10.54547119140625,-2.52042818069458,14.825688362121582,-1.0079269409179688
1771038059811437600,10.5644375,-3.5637850761413574,8.870978355407715,-5.4024882316589355
1771038059830403800,10.58340380859375,-4.767188549041748,4.4800825119018555,-8.31386947631836
1771038059849370000,10.6023701171875,-4.09645938873291,2.34694242477417,-7.608931541442871
1771038059868336400,10.62133642578125,-1.635895848274231,-1.646891474723816,-2.3713769912719727
1771038059887302400,10.640302490234374,-2.5302019119262695,-3.5857763290405273,3.4293949604034424
1771038059906269000,10.65926904296875,-5.856971740722656,-9.473291397094727,-0.11728604137897491
1771038059925235200,10.678235107421875,-4.199084281921387,-8.906408309936523,-10.310175895690918
1771038059944201500,10.697201416015625,-0.13194678723812103,6.621774196624756,-2.6218316555023193
1771038059963167700,10.716167724609376,1.4758492708206177,4.745197772979736,-2.190561056137085
1771038059982133800,10.7351337890625,1.433088779449463,1.9828671216964722,-2.2736387252807617
1771038060001100000,10.75410009765625,1.2156208753585815,0.574212908744812,-0.1539379209280014
1771038060020066300,10.77306640625,1.0604612827301025,-0.4679224193096161,2.1612396240234375
1771038060039032600,10.792032470703125,0.9993748068809509,0.03909534588456154,2.6975789070129395
1771038060057998800,10.810998779296876,1.1704169511795044,1.4440842866897583,1.9217805862426758
1771038060076965000,10.829965087890624,1.37078058719635,1.916893720626831,1.334128737449646
1771038060095931400,10.848931396484375,1.3206896781921387,1.6200133562088013,1.3854413032531738
1771038060114897700,10.867897705078125,1.0861176252365112,0.6792816519737244,2.3261730670928955
1771038060133864000,10.886864013671875,0.9358448386192322,-0.9480621218681335,3.651749610900879
1771038060152830200,10.905830322265626,1.061682939529419,-2.3628249168395996,4.377457141876221
1771038060171796500,10.92479638671875,0.9541707634925842,-2.553414821624756,4.679224014282227
1771038060190762800,10.9437626953125,0.5986474752426147,1.9144501686096191,2.995680809020996
1771038060209729000,10.96272900390625,1.7140865325927734,4.781849384307861,2.7953171730041504
1771038060228695300,10.9816953125,2.9797983169555664,1.9718714952468872,0.9553925395011902
1771038060247661600,11.00066162109375,1.117882490158081,-1.6578869819641113,2.800204038619995
1771038060266627800,11.0196279296875,-0.7134900689125061,-6.824581146240234,5.02863883972168
1771038060285594000,11.038593994140625,-1.8472551107406616,-6.845350742340088,4.758636474609375
1771038060304560400,11.057560302734375,-1.7947207689285278,-5.211898326873779,3.783696413040161
1771038060323526700,11.076526611328125,-0.6621774435043335,-3.6676321029663086,3.2559092044830322
1771038060342493000,11.095492919921876,1.1068869829177856,-1.5503748655319214,1.7861685752868652
1771038060361459200,11.114459228515624,3.236361503601074,0.03176496922969818,-1.860694169998169
1771038060380425200,11.13342529296875,4.612029075622559,-0.4557051360607147,-1.9572107791900635
1771038060399391500,11.1523916015625,4.7708539962768555,-0.19303326308727264,-1.2009601593017578
1771038060418357800,11.171357666015625,4.201528072357178,2.7281219959259033,-5.133707523345947
1771038060437324000,11.190323974609376,3.5112507343292236,-2.685361623764038,-4.012159824371338
1771038060456290300,11.209290283203124,1.7238603830337524,-6.946754455566406,1.5308271646499634
1771038060475256600,11.228256591796875,0.5937605500221252,-4.420217514038086,2.0720534324645996
1771038060494222800,11.247222900390625,-0.12583814561367035,3.4355034828186035,0.8381064534187317
1771038060513189000,11.266189208984375,-1.0470222234725952,13.628393173217773,-0.17226386070251465
1771038060532155400,11.2851552734375,-2.142913579940796,12.968659400939941,-3.699397087097168
1771038060551121700,11.30412158203125,-4.037816047668457,7.261960506439209,-8.67672348022461
1771038060570088000,11.323087890625,-4.433656692504883,4.702436923980713,-8.481246948242188
1771038060589054200,11.34205419921875,-2.4129159450531006,-0.411722868680954,-2.1795654296875
1771038060608020200,11.361020263671875,-3.2168140411376953,-4.122115612030029,4.2516188621521
1771038060626986500,11.379986572265626,-5.060403823852539,-7.326712131500244,3.425729751586914
1771038060645952800,11.398952880859374,-4.6340203285217285,-11.305885314941406,-13.550202369689941
1771038060664919000,11.4179189453125,-0.8026763200759888,9.016364097595215,-6.400640964508057
1771038060683885300,11.43688525390625,1.7788382768630981,6.513040065765381,-0.8393282294273376
1771038060702851600,11.4558515625,2.218660831451416,0.8210022449493408,-1.4379756450653076
1771038060721817900,11.47481787109375,1.9205588102340698,-0.6010909676551819,-0.1698204129934311
1771038060740784000,11.4937841796875,1.5638138055801392,-1.2253947257995605,1.341459035873413
1771038060759750400,11.51275048828125,1.4367539882659912,0.3029889166355133,3.1728317737579346
1771038060778716400,11.53171630859375,1.5503748655319214,1.469740629196167,2.6499314308166504
1771038060797682700,11.5506826171875,1.626121997833252,1.7971642017364502,2.079383611679077
1771038060816649000,11.56964892578125,1.5100576877593994,1.5748094320297241,1.9950844049453735
1771038060835615200,11.588615234375,1.2705987691879272,0.33597561717033386,2.7281219959259033
1771038060854581500,11.60758154296875,1.0299180746078491,-1.5784746408462524,4.067137718200684
1771038060873547800,11.6265478515625,1.0128138065338135,-2.487441301345825,4.5643815994262695
1771038060892514000,11.64551416015625,0.916297197341919,-1.7287473678588867,4.222297191619873
1771038060911480000,11.66447998046875,0.8258891701698303,0.3738492429256439,4.541168689727783
1771038060930446300,11.6834462890625,2.079383611679077,2.1563527584075928,4.196640968322754
1771038060949412600,11.70241259765625,2.0402884483337402,1.7519601583480835,1.3597849607467651
1771038060968379000,11.72137890625,0.30054548382759094,-3.3487606048583984,3.0616543292999268
1771038060987345200,11.74034521484375,-1.2608249187469482,-7.407346248626709,4.2516188621521
1771038061006311400,11.7593115234375,-1.8167119026184082,-6.5509138107299805,3.668853759765625
1771038061025277700,11.778277587890624,-1.6200133562088013,-4.581485748291016,2.7672173976898193
1771038061044243700,11.79724365234375,-0.44348782300949097,-2.7391176223754883,2.216217517852783
1771038061063210000,11.8162099609375,1.3500111103057861,-1.1985167264938354,0.14049890637397766
1771038061082176300,11.83517626953125,3.112967014312744,0.5082395076751709,-2.400698661804199
1771038061101142500,11.854142578125,3.8594436645507812,0.8955277800559998,-2.3481643199920654
1771038061120108800,11.87310888671875,3.7458229064941406,1.1496474742889404,-2.138026714324951
1771038061139075000,11.892074951171875,3.5784459114074707,2.0891575813293457,-4.90524435043335
1771038061158041000,11.911041015625,2.548527956008911,-2.612057685852051,-2.0195188522338867
1771038061177007400,11.93000732421875,0.7892373204231262,-7.65657901763916,3.1166322231292725
1771038061195973600,11.9489736328125,-0.04153880476951599,-1.130099892616272,2.274860382080078
1771038061214940000,11.96793994140625,-0.8393282294273376,12.790287017822266,-0.0256563201546669
1771038061233906200,11.98690625,-2.400698661804199,12.778069496154785,-4.200306415557861
1771038061252872200,12.0058720703125,-3.430616617202759,7.23019552230835,-8.432377815246582
1771038061271838500,12.02483837890625,-4.166097640991211,5.133707523345947,-8.772018432617188
1771038061290804700,12.0438046875,-3.551567792892456,1.977980136871338,-4.961443901062012
1771038061309771000,12.06277099609375,-2.765995740890503,-2.129474639892578,2.7305655479431152
1771038061328737300,12.0817373046875,-3.780031204223633,-5.5087785720825195,4.783071041107178
1771038061347703300,12.100703369140625,-4.274831771850586,-11.574666023254395,-7.580832004547119
1771038061366669600,12.119669677734375,-1.3280199766159058,-0.8723149299621582,-11.202038764953613
1771038061385635800,12.1386357421875,0.19914191961288452,7.017614364624023,-1.556483507156372
1771038061404602000,12.15760205078125,1.5662572383880615,4.19786262512207,-0.40805765986442566
1771038061423568400,12.176568359375,2.2235476970672607,2.7501132488250732,0.12950333952903748
1771038061442534400,12.195534423828125,2.4410157203674316,1.0494656562805176,0.8918625712394714
1771038061461500700,12.214500732421875,2.3909246921539307,-0.9126319885253906,2.4239113330841064
1771038061480467000,12.233467041015626,2.322507858276367,-0.18203771114349365,3.327991247177124
1771038061499433200,12.25243310546875,2.2430953979492188,0.481361448764801,2.679252862930298
1771038061518399500,12.2713994140625,2.0598361492156982,0.5400044918060303,2.175900459289551
1771038061537365500,12.290365478515625,1.7544035911560059,0.18692462146282196,1.841146469116211
1771038061556331800,12.309331787109375,1.3744457960128784,-1.2828160524368286,2.615722894668579
1771038061575298000,12.328298095703126,1.0152572393417358,-2.7904303073883057,3.9865036010742188
1771038061594264300,12.347264404296874,0.4202749729156494,-2.6364924907684326,5.172802925109863
1771038061613230300,12.366230224609374,0.05253437161445618,-0.7953459620475769,4.438543319702148
1771038061632196600,12.385196533203125,2.505767345428467,3.7030622959136963,6.8135857582092285
1771038061651163000,12.404162841796875,2.1832306385040283,3.1642794609069824,1.5222749710083008
1771038061670129200,12.423129150390626,0.8564324378967285,-1.7421863079071045,1.925445795059204
1771038061689095200,12.44209521484375,-0.8063415288925171,-7.099470615386963,3.560119867324829
1771038061708061400,12.4610615234375,-1.8704679012298584,-6.674308776855469,2.744004487991333
1771038061727027700,12.48002783203125,-2.2736387252807617,-4.988321781158447,1.5919135808944702
1771038061745994000,12.498993896484375,-1.7348560094833374,-3.336543321609497,1.3781108856201172
1771038061764960000,12.5179599609375,-0.15149445831775665,-2.1478004455566406,0.7696896195411682
1771038061783926300,12.53692626953125,1.7678426504135132,-0.6047561168670654,-1.1985167264938354
1771038061802892500,12.555892578125,2.867399215698242,0.43004879355430603,-2.070831537246704
1771038061821858800,12.57485888671875,3.051880359649658,1.2021819353103638,-2.118479013442993
1771038061840824800,12.593824951171875,2.97857666015625,3.4770424365997314,-4.875922679901123
1771038061859791000,12.612791015625,2.894277334213257,-1.673769474029541,-4.57049036026001
1771038061878757400,12.63175732421875,1.7250821590423584,-6.58878755569458,0.9566142559051514
1771038061897723400,12.650723388671874,0.8161153197288513,-6.658426284790039,2.10992693901062
1771038061916689700,12.669689697265625,0.3176496922969818,1.860694169998169,1.266933560371399
1771038061935656000,12.688656005859375,-0.6499601006507874,14.053555488586426,-0.2724456787109375
1771038061954622200,12.707622314453126,-2.42268967628479,13.938712120056152,-4.21985387802124
1771038061973588200,12.726588134765626,-4.166097640991211,7.811738967895508,-8.728035926818848
1771038061992554500,12.745554443359374,-4.423882961273193,4.3493571281433105,-8.239344596862793
1771038062011520800,12.764520751953125,-2.25531268119812,0.5082395076751709,-1.9339978694915771
1771038062030486800,12.78348681640625,-2.1917827129364014,-3.1972663402557373,4.492299556732178
1771038062049453000,12.802453125,-3.050658702850342,-6.106204509735107,3.247357130050659
1771038062068419300,12.82141943359375,-3.6309802532196045,-6.177064418792725,-13.17757511138916
1771038062087385600,12.840385498046874,-1.5687007904052734,5.18013334274292,-9.10921573638916
1771038062106351600,12.8593515625,0.06963858753442764,5.198459148406982,0.42271843552589417
1771038062125318000,12.87831787109375,1.237612009048462,3.2339181900024414,0.38728827238082886
1771038062144284200,12.8972841796875,1.518609881401062,1.5320488214492798,0.5119046568870544
1771038062163250200,12.916250244140626,1.4660754203796387,0.13683371245861053,0.9834923148155212
1771038062182216400,12.935216552734374,1.313359260559082,0.3738492429256439,3.193601131439209
1771038062201182700,12.9541826171875,1.2315033674240112,1.5552617311477661,3.3292131423950195
1771038062220148700,12.973148681640625,1.1911863088607788,1.2412772178649902,2.5277583599090576
1771038062239115000,12.992114990234375,1.000596523284912,-0.16004657745361328,2.2626430988311768
1771038062258081300,13.011081298828126,0.7525854110717773,-2.2198827266693115,3.5026986598968506
1771038062277047300,13.03004736328125,0.7195987105369568,-3.593106746673584,4.599811553955078
1771038062296013600,13.049013671875,0.5888736248016357,-4.569268703460693,4.547277450561523
1771038062314979800,13.067979736328125,0.43371400237083435,-1.701869249343872,5.112938404083252
1771038062333945900,13.08694580078125,1.905898094177246,8.173370361328125,3.975507974624634
1771038062352912100,13.105912109375,2.3542728424072266,3.9278604984283447,0.7330377101898193
1771038062371878400,13.12487841796875,1.6432262659072876,-1.2779290676116943,2.763552188873291
1771038062390844400,13.143844482421875,-0.5375609993934631,-5.810545921325684,4.169763088226318
1771038062409810700,13.162810791015625,-1.9425499439239502,-7.479428291320801,3.67984938621521
1771038062428777000,13.18177685546875,-2.229656457901001,-5.8215413093566895,2.802647590637207
1771038062447743000,13.200742919921876,-1.8191553354263306,-3.8203482627868652,2.7928738594055176
1771038062466709200,13.219709228515624,-0.2052505612373352,-1.925445795059204,2.4385721683502197
1771038062485675500,13.238675537109375,2.067166328430176,-0.45448338985443115,-0.24923282861709595
1771038062504641500,13.2576416015625,4.098902702331543,0.036651886999607086,-3.293782949447632
1771038062523607800,13.27660791015625,4.99076509475708,-1.684765100479126,-2.4385721683502197
1771038062542574000,13.295573974609376,4.951669692993164,1.7849469184875488,-4.5252861976623535
1771038062561540000,13.3145400390625,4.640129089355469,1.3756674528121948,-6.164847373962402
1771038062580506400,13.33350634765625,3.2180356979370117,-5.3377366065979,-0.4679224193096161
1771038062599472600,13.35247265625,1.3548980951309204,-7.332820892333984,2.10992693901062
1771038062618438700,13.371438720703125,0.2809978127479553,-0.8368847370147705,1.1362085342407227
1771038062637405000,13.390405029296875,-0.916297197341919,12.833046913146973,0.5571087002754211
1771038062656371000,13.409370849609376,-2.601062297821045,16.592309951782227,-2.2760822772979736
1771038062675337200,13.428337158203124,-4.568047046661377,9.85202693939209,-6.890554904937744
1771038062694303500,13.447303466796875,-5.0335259437561035,4.773297309875488,-7.221643447875977
1771038062713269500,13.46626953125,-3.447720766067505,-0.5216785073280334,-2.676809549331665
1771038062732235800,13.48523583984375,-3.451385974884033,-3.9083127975463867,3.423286199569702
1771038062751202000,13.5042021484375,-4.492299556732178,-5.8606367111206055,3.3988516330718994
1771038062770168000,13.52316796875,-4.663341522216797,-8.053641319274902,-12.196526527404785
1771038062789134300,13.54213427734375,-1.7470732927322388,5.770228862762451,-8.532559394836426
1771038062808100400,13.561100341796875,0.4874700903892517,6.644987106323242,0.023212861269712448
1771038062827066600,13.580066650390625,1.3634501695632935,2.3713769912719727,-0.11606431007385254
1771038062846033000,13.599032958984376,1.3011419773101807,0.3127627670764923,0.4361574649810791
1771038062864999000,13.6179990234375,1.0946696996688843,0.19669845700263977,1.7763947248458862
1771038062883965200,13.636965087890625,1.0250310897827148,1.5943571329116821,2.989572286605835
1771038062902931200,13.65593115234375,1.1594213247299194,2.2589778900146484,2.5082108974456787
1771038062921897500,13.6748974609375,1.324354887008667,1.8814635276794434,2.25531268119812
1771038062940863500,13.693863525390626,1.3561197519302368,0.8100066781044006,2.1331398487091064
1771038062959829800,13.712829833984374,1.3280199766159058,-0.7464767694473267,3.7397141456604004
1771038062978796000,13.731796142578125,1.5406010150909424,-2.064723014831543,4.768410682678223
1771038062997762000,13.750761962890625,1.646891474723816,-3.22170090675354,4.743975639343262
1771038063016728300,13.769728271484375,1.848476767539978,-2.696357250213623,3.881434917449951
1771038063035694300,13.7886943359375,2.917490243911743,4.4495391845703125,1.535714030265808
1771038063054660600,13.80766064453125,3.2901177406311035,4.4947428703308105,1.5662572383880615
1771038063073627000,13.826626953125,1.8460333347320557,-0.36285367608070374,1.935219645500183
1771038063092593000,13.845593017578125,-0.544891357421875,-4.933343887329102,3.3548693656921387
1771038063121042200,13.874042236328124,-2.175900459289551,-7.739656925201416,4.11234188079834
1771038063140008400,13.893008544921875,-2.0525057315826416,-6.5142621994018555,3.4416122436523438
1771038063158974500,13.911974365234375,-1.1056652069091797,-4.163654327392578,3.156949281692505
1771038063177940700,13.930940673828125,0.9175189137458801,-1.9840887784957886,2.168570041656494
1771038063196906800,13.94990673828125,3.2204790115356445,-0.25534147024154663,-1.1594213247299194
1771038063215873000,13.968873046875,4.454425811767578,-0.4874700903892517,-3.071428060531616
1771038063234839000,13.987839111328125,4.890583515167236,-1.2986985445022583,-2.0720534324645996
1771038063253805300,14.006805419921875,5.265654563903809,0.13927717506885529,-2.939481258392334
1771038063272771600,14.025771484375,5.048186302185059,-2.0573925971984863,-5.491674423217773
1771038063291737600,14.044737548828126,3.423286199569702,-5.999913692474365,-1.479514479637146
1771038063310703900,14.063703857421874,0.9737184643745422,-7.616261959075928,0.471587598323822
1771038063329670000,14.082669921875,-0.7147117853164673,0.10018182545900345,0.23212862014770508
1771038063348636200,14.10163623046875,-1.9535455703735352,13.059067726135254,0.08674279600381851
1771038063367602200,14.120602294921875,-3.3512041568756104,18.086484909057617,-0.5375609993934631
1771038063386568400,14.139568359375,-4.690219879150391,10.334609985351562,-4.641350746154785
1771038063405534500,14.158534423828126,-5.114160060882568,2.687804937362671,-7.764091491699219
1771038063424500700,14.177500732421874,-2.989572286605835,-2.824638843536377,-6.593674659729004
1771038063443466800,14.196466796875,-1.4636319875717163,-4.959000110626221,0.30543237924575806
1771038063462433000,14.21543310546875,-3.2485787868499756,-3.3157739639282227,2.364046812057495
1771038063481399000,14.23439892578125,-3.5222463607788086,-2.640157461166382,-2.2137739658355713
1771038063500365300,14.253365234375,-2.7782130241394043,-0.7195987105369568,-15.059038162231445
1771038063519331300,14.272331298828124,-0.4569268524646759,6.692634582519531,-2.4959933757781982
1771038063538297600,14.291297607421875,1.0054833889007568,5.1092729568481445,1.156977891921997
1771038063557263600,14.310263671875,1.4001020193099976,1.480736255645752,0.998153030872345
1771038063576230000,14.32922998046875,1.321911334991455,-1.2107340097427368,1.1936297416687012
1771038063595196000,14.34819580078125,1.2046253681182861,-0.5473348498344421,3.808130979537964
1771038063614162200,14.367162109375,1.1410953998565674,0.6536253094673157,3.453829526901245
1771038063633128200,14.386128173828125,1.099556565284729,0.9761618971824646,2.522871494293213
1771038063652094500,14.405094482421875,0.9517273306846619,0.5962040424346924,2.008523464202881
1771038063671060500,14.424060546875,0.6438514590263367,-0.740368127822876,3.0555455684661865
1771038063690026800,14.44302685546875,0.3433060050010681,-2.596175193786621,5.0616254806518555
1771038063708992800,14.46199267578125,-0.04764745384454727,-3.612654209136963,5.448914051055908
1771038063727959000,14.480958984375,-0.43004879355430603,-2.0525057315826416,4.761080265045166
1771038063746925000,14.499925048828125,1.4098758697509766,5.9449357986450195,4.875922679901123
1771038063765891300,14.518891357421875,3.794692039489746,3.8264570236206055,1.4172062873840332
1771038063784857300,14.537857421875,1.7055344581604004,-0.09651663154363632,2.302960157394409
1771038063803823600,14.55682373046875,-0.8063415288925171,-5.479456901550293,4.190532207489014
1771038063822789600,14.57578955078125,-2.118479013442993,-7.139787673950195,4.503294944763184
1771038063841756000,14.594755859375,-2.0268492698669434,-5.960818290710449,3.623649835586548
1771038063860722000,14.613721923828125,-1.3158026933670044,-3.568671941757202,3.0531022548675537
1771038063879688200,14.632688232421875,-0.16615521907806396,-1.6493349075317383,2.1392483711242676
1771038063898654200,14.651654296875,1.8619158267974854,0.5119046568870544,-1.508836030960083
1771038063917620500,14.670620361328124,3.450164318084717,0.7012727856636047,-4.239401340484619
1771038063936586500,14.68958642578125,4.141663074493408,-0.6438514590263367,-3.015228509902954
1771038063955552500,14.708552490234375,4.327365875244141,-0.22479823231697083,-2.8466298580169678
1771038063974518800,14.727518798828125,3.953516960144043,-0.4728093445301056,-4.504517078399658
1771038063993484800,14.74648486328125,3.084867238998413,-2.196669816970825,-0.7990111112594604
1771038064012451000,14.765451171875,1.4208714962005615,-7.411011695861816,2.4263548851013184
1771038064031417000,14.7844169921875,0.19181154668331146,-4.350578784942627,1.6420044898986816
1771038064050383400,14.80338330078125,-0.5803215503692627,7.443998336791992,-0.09896009415388107
1771038064069349400,14.822349365234375,-2.1001532077789307,15.161664009094238,-2.663370370864868
1771038064088315600,14.841315673828126,-3.562563419342041,11.767699241638184,-7.237525939941406
1771038064107281700,14.86028173828125,-3.635867118835449,5.068955898284912,-9.45985221862793
1771038064126248000,14.879248046875,-0.9920443892478943,1.3463460206985474,-7.023723125457764
1771038064145214000,14.8982138671875,0.0818558782339096,0.6035344004631042,-0.19669845700263977
1771038064164180000,14.917179931640625,-2.2589778900146484,1.2009601593017578,3.174053430557251
1771038064183146200,14.936146240234375,-3.866774082183838,-1.4966187477111816,1.0800089836120605
1771038064202112300,14.9551123046875,-5.495339393615723,-5.558869361877441,-14.60211181640625
1771038064221078500,14.97407861328125,-2.7305655479431152,6.387202262878418,-3.2229225635528564
1771038064240044500,14.99304443359375,0.3445277214050293,5.759232997894287,1.2534945011138916
1771038064259010800,15.0120107421875,1.2534945011138916,2.481332778930664,0.962722897529602
1771038064277976800,15.030976806640625,1.1838558912277222,-0.04886918142437935,1.1117738485336304
1771038064296942800,15.04994287109375,0.8393282294273376,1.2131774425506592,1.25715970993042
1771038064315909000,15.0689091796875,0.7867938280105591,3.2168140411376953,2.153909206390381
1771038064334875100,15.087875244140625,0.9370665550231934,2.9651377201080322,1.9193371534347534
1771038064353841200,15.106841064453125,1.1056652069091797,1.8949025869369507,1.8093814849853516
1771038064372807400,15.125807373046875,1.2925899028778076,0.8527672290802002,3.9327473640441895
1771038064391773400,15.1447734375,1.6077960729599,-1.3390156030654907,4.956556797027588
1771038064410739700,15.16373974609375,1.7959424257278442,-3.015228509902954,4.7794060707092285
1771038064429705700,15.182705810546874,1.7996076345443726,-3.9156432151794434,4.8466010093688965
1771038064448671700,15.201671630859375,2.4740023612976074,2.702465772628784,1.9938626289367676
1771038064467638000,15.220637939453125,4.624246597290039,7.160556793212891,-1.1496474742889404
1771038064486604000,15.23960400390625,4.83927059173584,3.9474081993103027,0.8894191384315491
1771038064505570300,15.2585703125,1.0641264915466309,-1.0299180746078491,1.7263038158416748
1771038064524536300,15.277536376953124,-1.4257583618164062,-7.335264205932617,3.2461354732513428
1771038064543502300,15.29650244140625,-2.149022340774536,-8.890525817871094,4.373791694641113
1771038064562468600,15.315468505859375,-2.227212905883789,-6.052448272705078,3.875326156616211
1771038064581434600,15.3344345703125,-1.4453060626983643,-3.4636032581329346,3.3793039321899414
1771038064600400600,15.353400634765626,0.5827649831771851,-1.4758492708206177,1.9523237943649292
1771038064619367000,15.372366943359374,3.1862707138061523,-1.2901464700698853,-1.2583814859390259
1771038064638333000,15.3913330078125,5.098277568817139,-2.9749114513397217,-2.8099780082702637
1771038064657299200,15.41029931640625,6.052448272705078,-3.2925610542297363,-1.8826853036880493
1771038064676265200,15.42926513671875,5.927831649780273,-1.6346741914749146,-3.8875434398651123
1771038064695231200,15.448231201171875,5.630951404571533,-3.665188789367676,-5.242441654205322
1771038064714197500,15.467197509765626,4.4409871101379395,-6.12453031539917,-0.9053016304969788
1771038064733163500,15.48616357421875,1.5723659992218018,-6.827024936676025,1.092226266860962
1771038064752129500,15.505129638671875,-0.6401863098144531,-1.1936297416687012,1.4721840620040894
1771038064771095800,15.524095703125,-1.062904715538025,12.636348724365234,1.7898337841033936
1771038064790061800,15.543061767578125,-2.2821907997131348,16.830547332763672,0.6206386089324951
1771038064809028000,15.562028076171876,-3.5943284034729004,12.001049041748047,-2.685361623764038
1771038064827994000,15.580994140625,-5.275428295135498,3.864330530166626,-7.092140197753906
1771038064846960000,15.599960205078125,-4.762301921844482,-2.8820600509643555,-7.302277565002441
1771038064865926100,15.618926025390625,-3.7482662200927734,-6.652317523956299,1.0238093137741089
1771038064884892400,15.637892333984375,-4.741532325744629,-6.382315158843994,1.802051067352295
1771038064903858400,15.6568583984375,-3.1202971935272217,-0.7330377101898193,-9.148310661315918
1771038064922824700,15.67582470703125,-1.4367539882659912,3.665188789367676,-11.13117790222168
1771038064941790700,15.694790771484374,0.4251618981361389,1.5638138055801392,0.5876519083976746
1771038064960756700,15.7137568359375,1.324354887008667,2.4886631965637207,0.45937031507492065
1771038064979723000,15.732722900390625,1.4196497201919556,3.19970965385437,-0.2052505612373352
1771038064998689000,15.75168896484375,1.3377938270568848,0.8112284541130066,0.9834923148155212
1771038065017655000,15.770655029296876,1.102000117301941,-1.525940179824829,3.61021089553833
1771038065036621300,15.789621337890624,0.7049379348754883,-1.128878116607666,3.0250024795532227
1771038065055587300,15.80858740234375,0.6084213256835938,-0.4764745235443115,1.8460333347320557
1771038065074553300,15.82755322265625,0.5986474752426147,-0.36774060130119324,1.3170244693756104
1771038065093519600,15.84651953125,0.4166097939014435,-1.6077960729599,2.791651964187622
1771038065112485600,15.865485595703126,0.17348559200763702,-3.1789402961730957,4.773297309875488
1771038065131451600,15.88445166015625,-0.22846342623233795,-3.395186424255371,5.082395076751709
1771038065150417700,15.903417724609374,-0.5436696410179138,-0.5962040424346924,5.643168926239014
1771038065169384000,15.922384033203125,0.6780598759651184,10.1708984375,5.6089606285095215
1771038065188350000,15.941349853515625,2.1172573566436768,6.387202262878418,0.6401863098144531
1771038065207316000,15.96031591796875,2.75744366645813,-0.5229002237319946,2.360381603240967
1771038065226282200,15.9792822265625,0.6976075768470764,-4.408000469207764,3.6260933876037598
1771038065245248300,15.998248291015624,-1.033583164215088,-7.071370601654053,3.638310670852661
1771038065264214300,16.01721435546875,-1.5772528648376465,-5.94127082824707,2.7342307567596436
1771038065283180500,16.0361806640625,-1.2107340097427368,-3.5772242546081543,2.3958115577697754
1771038065302146600,16.055146484375,-0.0256563201546669,-2.190561056137085,1.7360776662826538
1771038065321112600,16.074112548828126,1.5674790143966675,-1.8949025869369507,0.41905322670936584
1771038065340078600,16.09307861328125,3.0323326587677,-1.1252129077911377,-1.3829978704452515
1771038065359044900,16.112044921875,4.0194902420043945,-0.8368847370147705,-1.646891474723816
1771038065378011000,16.131010986328125,4.158767223358154,-0.3139844834804535,-1.4453060626983643
1771038065396977000,16.149976806640623,3.9999425411224365,2.897942543029785,-4.137998104095459
1771038065415943200,16.168943115234374,3.1422884464263916,0.48013970255851746,-5.876519203186035
1771038065434909200,16.1879091796875,0.9138537049293518,-8.162375450134277,0.3995055556297302
1771038065453875200,16.206875244140626,-0.31031930446624756,-5.523439407348633,1.3439024686813354
1771038065472841200,16.22584130859375,-0.6768381595611572,7.22042179107666,1.1594213247299194
1771038065491807500,16.244807373046875,-2.1636829376220703,16.421266555786133,-0.4874700903892517
1771038065510773500,16.2637734375,-3.6981754302978516,13.187349319458008,-4.8575968742370605
1771038065529739500,16.282739501953124,-5.297419548034668,6.277246475219727,-8.473916053771973
1771038065548705500,16.30170556640625,-4.017046928405762,1.1606431007385254,-6.779377460479736
1771038065567671800,16.320671875,-1.731190800666809,-3.3731954097747803,1.3658936023712158
1771038065586637800,16.339637939453127,-3.44283390045166,-4.850266456604004,4.930900573730469
1771038065605603800,16.358603759765625,-4.692663192749023,-7.2436347007751465,-4.376235485076904
1771038065624570000,16.377570068359375,-2.8319690227508545,-1.4367539882659912,-13.274091720581055
1771038065643536100,16.3965361328125,-0.034208428114652634,6.1599602699279785,-1.1618647575378418
1771038065662502100,16.415502197265624,1.535714030265808,3.29744815826416,-0.5583304166793823
1771038065681468200,16.43446826171875,1.7177517414093018,2.0781619548797607,-1.3646719455718994
1771038065700434400,16.453434326171877,1.6151264905929565,0.7843503952026367,-0.41294458508491516
1771038065719400400,16.472400390625,1.5625921487808228,-0.39828383922576904,2.998124361038208
1771038065738366500,16.491366455078126,1.5406010150909424,0.37140578031539917,3.7128360271453857
1771038065757332500,16.51033251953125,1.4770710468292236,1.5210533142089844,2.819751739501953
1771038065776298500,16.529298583984374,1.25715970993042,1.6420044898986816,2.1636829376220703
1771038065795264800,16.5482646484375,0.8075632452964783,0.1893680840730667,1.8704679012298584
1771038065814230800,16.567230712890623,0.3225366175174713,-3.115410327911377,3.738492488861084
1771038065833196800,16.58619677734375,0.12217295914888382,-4.657233238220215,4.5643815994262695
1771038065852162800,16.605162841796876,-0.19425499439239502,-4.759858131408691,4.607141971588135
1771038065871129000,16.624129150390626,-0.02932151034474373,-0.09040798991918564,5.495339393615723
1771038065890095000,16.64309521484375,1.7788382768630981,8.214909553527832,5.447691917419434
1771038065909061000,16.66206103515625,2.229656457901001,3.4269514083862305,0.6890554428100586
1771038065928027100,16.681027099609373,1.92666757106781,-0.17715078592300415,1.9095633029937744
1771038065946993400,16.699993408203124,-0.046425722539424896,-4.850266456604004,3.4855945110321045
1771038065965959400,16.71895947265625,-1.6090178489685059,-6.706073760986328,2.989572286605835
1771038065984925400,16.737925537109376,-2.0305144786834717,-5.931497097015381,1.8936808109283447
1771038066003891500,16.756891357421875,-1.5735876560211182,-4.124558925628662,1.9462151527404785
1771038066022857700,16.775857666015625,-0.3530798554420471,-2.1197006702423096,1.3634501695632935
1771038066041823700,16.79482373046875,1.5625921487808228,-0.27000224590301514,-0.3347539007663727
1771038066060789800,16.813789794921874,3.2058184146881104,0.20891575515270233,-2.138026714324951
1771038066079755800,16.832755859375,3.9364125728607178,-0.03787361457943916,-2.0964879989624023
1771038066098721800,16.8517216796875,4.239401340484619,0.6181951761245728,-2.1942262649536133
1771038066117688000,16.87068798828125,4.505738735198975,0.9272927641868591,-4.966330528259277
1771038066136654000,16.889654052734375,3.450164318084717,-5.2546586990356445,-2.579071044921875
1771038066155620000,16.9086201171875,1.5968005657196045,-9.061568260192871,1.1166608333587646
1771038066174586000,16.927586181640624,0.41905322670936584,-3.640753984451294,0.9859357476234436
1771038066193552100,16.94655224609375,-0.4324922561645508,8.836770057678223,0.6560688018798828
1771038066212518400,16.965518310546877,-1.8069380521774292,16.016874313354492,-0.5619956254959106
1771038066231484400,16.984484375,-3.0616543292999268,12.614357948303223,-4.0109381675720215
1771038066250450400,17.003450439453125,-4.360352993011475,6.2210469245910645,-7.683457374572754
1771038066269416400,17.02241650390625,-3.9241952896118164,1.0201442241668701,-6.977297306060791
1771038066288382500,17.041382568359374,-2.768439292907715,-3.274235248565674,0.6805033683776855
1771038066307348700,17.0603486328125,-3.911978006362915,-5.023751735687256,3.9107563495635986
1771038066326314800,17.079314697265627,-2.9797983169555664,-4.707324028015137,-1.1557561159133911
1771038066345280800,17.09828076171875,-2.4239113330841064,-1.8252639770507812,-16.479909896850586
1771038066364246800,17.117246826171876,-0.6157516837120056,5.811767578125,-3.2950046062469482
1771038066383212800,17.136212890625,0.8576541543006897,3.579667568206787,0.5632173418998718
1771038066402178800,17.1551787109375,1.3573415279388428,2.4911065101623535,-0.45326167345046997
1771038066421145000,17.17414501953125,1.3915499448776245,1.2596031427383423,0.1331685185432434
1771038066440111000,17.193111083984373,1.4233149290084839,0.29443681240081787,3.015228509902954
1771038066459077000,17.2120771484375,1.3683371543884277,0.5986474752426147,3.964512348175049
1771038066478043100,17.231043212890626,1.3255765438079834,1.2974767684936523,2.878394842147827
1771038066497009200,17.250009033203124,1.1899645328521729,1.2143992185592651,2.1197006702423096
1771038066515975200,17.26897509765625,0.8381064534187317,0.14660754799842834,1.7372994422912598
1771038066534941400,17.28794140625,0.43982264399528503,-2.598618745803833,3.2766785621643066
1771038066563390500,17.316390380859374,0.07574722915887833,-4.847822666168213,4.5643815994262695
1771038066582356500,17.3353564453125,-0.5045742988586426,-4.083020210266113,4.772075653076172
1771038066601322500,17.354322509765623,0.3274235129356384,4.656011581420898,6.792816162109375
1771038066620288500,17.37328857421875,2.8124215602874756,6.758607864379883,2.671922445297241
1771038066639254500,17.392254638671876,2.453233003616333,1.2046253681182861,1.2156208753585815
1771038066658220800,17.411220703125,0.23212862014770508,-3.285230875015259,3.1923792362213135
1771038066677186800,17.430186767578125,-1.390328288078308,-6.745168685913086,3.7531533241271973
1771038066696152800,17.44915283203125,-1.9022328853607178,-5.9363837242126465,2.7305655479431152
1771038066715118800,17.468118896484373,-1.8142683506011963,-4.790401458740234,2.333503484725952
1771038066734084900,17.4870849609375,-1.1410953998565674,-2.75744366645813,1.8032728433609009
1771038066753051000,17.50605078125,0.32131487131118774,-0.6499601006507874,0.4789179861545563
1771038066772017000,17.525016845703124,2.0207407474517822,-0.39339691400527954,-2.674365997314453
1771038066790983200,17.543983154296875,2.783099889755249,-0.8576541543006897,-2.392146587371826
1771038066809949200,17.56294921875,2.987128734588623,0.36285367608070374,-0.9737184643745422
1771038066828915200,17.581915283203124,4.075689792633057,2.127031087875366,-4.9858784675598145
1771038066847881200,17.600881103515626,3.84722638130188,0.277332603931427,-3.929082155227661
1771038066866847200,17.61984716796875,2.017075538635254,-6.224711894989014,2.44468092918396
1771038066885813200,17.638813232421874,1.1056652069091797,-4.56071662902832,2.950476884841919
1771038066904779300,17.657779296875,0.7257073521614075,5.842310905456543,1.489288330078125
1771038066923745300,17.676745361328123,-0.574212908744812,11.998605728149414,-0.8161153197288513
1771038066942711600,17.695711669921874,-2.0720534324645996,9.69075870513916,-4.982213020324707
1771038066961677600,17.714677490234376,-4.161211013793945,7.277842998504639,-8.990707397460938
1771038066980643600,17.7336435546875,-5.044521331787109,6.048782825469971,-7.71644401550293
1771038066999609600,17.752609619140625,-3.517359495162964,0.014660755172371864,0.8222240209579468
1771038067018575600,17.77157568359375,-3.408625364303589,-5.926609992980957,4.751306056976318
1771038067037541600,17.790541748046873,-3.532020092010498,-7.301055908203125,-0.7330377101898193
1771038067056507600,17.809507568359376,-3.1703882217407227,-1.9694280624389648,-16.33819007873535
1771038067075473700,17.8284736328125,-0.4825831651687622,9.872797012329102,-3.378082275390625
1771038067094439700,17.847439697265624,1.1410953998565674,2.626718521118164,0.3836230933666229
1771038067113405700,17.86640576171875,1.0115920305252075,-0.8833104968070984,-0.8552106618881226
1771038067132372000,17.8853720703125,0.45326167345046997,-1.1362085342407227,-0.07941242307424545
1771038067151338000,17.904337890625,0.01588248461484909,2.5546364784240723,1.4819579124450684
1771038067170304000,17.923303955078126,0.10506874322891235,5.108051300048828,2.6523749828338623
1771038067189270000,17.94227001953125,0.15760311484336853,4.952891826629639,2.031736373901367
1771038067208236000,17.961236083984375,0.2101374864578247,3.490481376647949,1.877798318862915
1771038067227202000,17.9802021484375,0.37262752652168274,1.5748094320297241,2.4605634212493896
1771038067246168000,17.99916796875,0.7318159937858582,-0.7623592615127563,3.850891590118408
1771038067265134000,18.018134033203125,1.3585633039474487,-2.2821907997131348,4.816058158874512
1771038067284100000,18.03710009765625,1.6285655498504639,-3.0323326587677,5.123933792114258
1771038067303066000,18.056066162109374,1.518609881401062,-3.4550511837005615,4.84537935256958
1771038067322032400,18.075032470703125,1.8619158267974854,1.518609881401062,0.5216785073280334
1771038067340998100,18.093998046875,2.8967208862304688,6.585122108459473,-0.33231043815612793
1771038067359964400,18.11296435546875,2.9553637504577637,0.8869756460189819,1.7360776662826538
1771038067378930400,18.131930419921876,-0.14172062277793884,-3.554011344909668,3.640753984451294
1771038067397896400,18.150896484375,-2.0476186275482178,-7.357255458831787,5.205789566040039
1771038067416862500,18.169862548828124,-2.539975643157959,-6.932093620300293,4.951669692993164
1771038067435828500,18.188828369140627,-2.2345433235168457,-4.890583515167236,3.9327473640441895
1771038067454794500,18.20779443359375,-1.1081087589263916,-3.227809429168701,2.8869469165802
1771038067473760500,18.226760498046875,1.1362085342407227,-2.0525057315826416,1.0800089836120605
1771038067492726500,18.2457265625,3.90098237991333,-0.7611374855041504,-1.6774346828460693
1771038067511692500,18.264692626953124,5.145925045013428,-1.3377938270568848,-2.1551308631896973
1771038067530658600,18.283658447265626,5.062847137451172,-1.4282019138336182,-1.2705987691879272
1771038067549624600,18.30262451171875,4.816058158874512,-0.7904590368270874,-3.285230875015259
1771038067568590600,18.321590576171875,4.400670051574707,1.6786564588546753,-4.445873737335205
1771038067587556600,18.340556640625,1.8912373781204224,-3.7507097721099854,1.7458515167236328
1771038067606522600,18.359522705078124,0.06475166976451874,-4.4947428703308105,2.3506076335906982
1771038067625489000,18.378489013671874,-0.7648026943206787,4.710988998413086,0.7721330523490906
1771038067644454700,18.39745458984375,-1.8997894525527954,14.481160163879395,-0.9040798544883728
1771038067663421000,18.4164208984375,-3.302335023880005,13.789661407470703,-3.9376344680786133
1771038067682387000,18.435386962890625,-5.235111236572266,8.161153793334961,-7.670018196105957
1771038067701353000,18.45435302734375,-5.403709888458252,2.8344125747680664,-8.548441886901855
1771038067720319000,18.473319091796874,-2.1025965213775635,-5.825206756591797,-2.8515167236328125
1771038067739285000,18.492284912109376,-3.1984879970550537,-7.268069267272949,2.8564038276672363
1771038067758251000,18.5112509765625,-6.150186538696289,-6.228377342224121,1.186299443244934
1771038067777217000,18.530217041015625,-5.1007208824157715,-12.008379936218262,-12.442093849182129
1771038067796183000,18.54918310546875,-0.8197805285453796,6.846572399139404,-6.90765905380249
1771038067815149000,18.568149169921874,1.0775654315948486,4.948004722595215,-0.637742817401886
1771038067834115000,18.587114990234376,1.1313215494155884,1.0555742979049683,0.5937605500221252
1771038067853081000,18.6060810546875,0.6108647584915161,-0.1331685185432434,1.7055344581604004
1771038067872047000,18.625047119140625,0.4068359434604645,0.15760311484336853,1.9217805862426758
1771038067891013000,18.64401318359375,0.7415898442268372,3.2009315490722656,1.887572169303894
1771038067909979100,18.662979248046874,1.186299443244934,4.585151195526123,1.1081087589263916
1771038067928945200,18.681945068359376,1.4049890041351318,3.920530080795288,1.0103703737258911
1771038067947911200,18.7009111328125,1.3353503942489624,2.3237295150756836,2.7708826065063477
1771038067966877200,18.719877197265625,1.3451242446899414,-0.22357651591300964,5.580860614776611
1771038067985843200,18.73884326171875,1.50028395652771,-2.27730393409729,5.980366230010986
1771038068004809200,18.757809326171873,1.2791508436203003,-3.696953535079956,6.448288440704346
1771038068023775200,18.776775146484376,0.6365211009979248,-3.1679446697235107,3.1361796855926514
1771038068042741200,18.7957412109375,1.7336342334747314,4.758636474609375,-0.4825831651687622
1771038068061707300,18.814707275390624,3.5662286281585693,5.330406188964844,-0.04276053607463837
1771038068080673300,18.83367333984375,2.0720534324645996,-0.4312705397605896,2.6413793563842773
1771038068099639300,18.852639404296873,-0.7269290685653687,-4.907687664031982,4.7012152671813965
1771038068118605300,18.871605224609375,-1.905898094177246,-6.858789920806885,5.582082271575928
1771038068137571300,18.8905712890625,-2.0879359245300293,-6.406749725341797,5.183798313140869
1771038068156537300,18.909537353515624,-1.4196497201919556,-4.205193042755127,4.254062175750732
1771038068175503400,18.92850341796875,0.7171552777290344,-1.8704679012298584,2.472780704498291
1771038068194469400,18.947469482421877,3.5918848514556885,-0.4679224193096161,-0.9016364216804504
1771038068213435400,18.966435302734375,5.4611310958862305,-1.3475676774978638,-2.0891575813293457
1771038068232401400,18.9854013671875,4.729315280914307,-3.1056365966796875,-2.075718402862549
1771038068251367400,19.004367431640624,4.482525825500488,-2.5668537616729736,-3.6065456867218018
1771038068270333400,19.02333349609375,4.646237373352051,-0.25045454502105713,-5.1092729568481445
1771038068289299500,19.042299560546876,2.329838275909424,1.4245367050170898,0.6768381595611572
1771038068308265500,19.061265380859375,-0.554665207862854,-3.775144338607788,2.8881685733795166
1771038068327231500,19.0802314453125,-2.1807873249053955,-2.467893600463867,1.4721840620040894
1771038068346197500,19.099197509765624,-2.830747365951538,8.57532024383545,-0.11972949653863907
1771038068365163500,19.11816357421875,-3.8789913654327393,15.359583854675293,-1.635895848274231
1771038068384129500,19.137129638671876,-5.259545803070068,12.322364807128906,-4.8942484855651855
1771038068403095600,19.156095458984375,-5.886292934417725,4.001164436340332,-7.2888383865356445
1771038068422061600,19.1750615234375,-2.27730393409729,-4.142884731292725,-5.943714141845703
1771038068441027600,19.194027587890623,-0.47525280714035034,-6.652317523956299,-1.7556253671646118
1771038068459993600,19.21299365234375,-4.582707405090332,-5.1398162841796875,0.554665207862854
1771038068478959600,19.231959716796876,-6.916211128234863,-9.271705627441406,-4.185645580291748
1771038068497925600,19.250925537109374,-2.408029079437256,-2.003636360168457,-8.662062644958496
1771038068516891600,19.2698916015625,1.0848958492279053,5.478235244750977,-1.9413282871246338
1771038068535857700,19.288857666015623,1.5125012397766113,2.682918071746826,-2.3286166191101074
1771038068554823700,19.30782373046875,1.2192860841751099,1.5894701480865479,-1.4404191970825195
1771038068573789400,19.32678955078125,1.158199667930603,-0.06841685622930527,-0.08918625861406326
1771038068592755700,19.345755615234374,1.5638138055801392,0.059864748269319534,3.3402085304260254
1771038068611721500,19.364721435546876,1.9217805862426758,1.1630865335464478,3.8875434398651123
1771038068630687700,19.383687744140627,2.1416919231414795,1.9938626289367676,2.6474878787994385
1771038068649653500,19.402653564453125,2.064723014831543,2.079383611679077,1.8460333347320557
1771038068668619500,19.42161962890625,1.7580687999725342,1.2217295169830322,1.6139047145843506
1771038068687585500,19.44058544921875,1.5515965223312378,-0.4728093445301056,2.4129159450531006
1771038068706551600,19.459551513671876,1.3561197519302368,-2.522871494293213,4.194197654724121
1771038068725517600,19.478517578125,0.9321796298027039,-3.8692173957824707,5.595521450042725
1771038068744483600,19.497483642578125,0.4312705397605896,0.8100066781044006,6.2014994621276855
1771038068782415600,19.53541552734375,1.8521419763565063,1.9987496137619019,0.6157516837120056
1771038068810864600,19.56386474609375,0.3640754222869873,-3.877769708633423,3.948629856109619
1771038068829830700,19.58283056640625,-1.4110976457595825,-6.906437397003174,5.045742988586426
1771038068848796700,19.601796630859376,-2.13191819190979,-6.796481609344482,4.582707405090332
1771038068867762700,19.6207626953125,-1.6053526401519775,-4.5643815994262695,4.256505966186523
1771038068896211700,19.649211669921876,1.8716896772384644,-0.3909534513950348,0.4508182108402252
1771038068915177700,19.668177734375,4.344470500946045,-0.7745765447616577,-3.067762851715088
1771038068934143500,19.6871435546875,4.796510219573975,-2.199113130569458,-1.33290696144104
1771038068962592500,19.715592529296874,4.626689910888672,-0.9016364216804504,-3.302335023880005
1771038068981558500,19.73455859375,4.591259479522705,-0.09529490768909454,-4.6731157302856445
1771038069000524500,19.753524658203126,1.3756674528121948,-5.659051418304443,2.9077162742614746
1771038069019490600,19.772490478515625,-1.0861176252365112,-7.709113597869873,2.900385856628418
1771038069038456600,19.79145654296875,-1.5955787897109985,6.1208648681640625,0.39828383922576904
1771038069057422600,19.810422607421874,-2.670700788497925,17.48295021057129,-1.1129956245422363
1771038069076388600,19.829388671875,-4.129446029663086,15.34492301940918,-3.3829691410064697
1771038069095354600,19.848354736328126,-5.858193397521973,8.712153434753418,-6.627882957458496
1771038069114320600,19.867320556640625,-5.93516206741333,0.6499601006507874,-8.13305377960205
1771038069133286700,19.88628662109375,-2.0525057315826416,-9.056681632995605,-5.417149066925049
1771038069152252700,19.905252685546873,-1.2266165018081665,-9.364557266235352,0.14660754799842834
1771038069171218700,19.92421875,-5.3914923667907715,-4.890583515167236,0.6255255341529846
1771038069190184400,19.943184326171874,-5.458687782287598,-7.629701137542725,-6.93942403793335
1771038069209150500,19.962150390625,-0.8991929292678833,5.30963659286499,-9.269262313842773
1771038069228116500,19.981116455078126,1.0140355825424194,5.397601127624512,-1.7397428750991821
1771038069247082500,20.00008251953125,0.9040798544883728,1.1252129077911377,-0.25045454502105713
1771038069266048500,20.019048583984375,0.49113526940345764,-0.3225366175174713,0.5717694163322449
1771038069285014500,20.0380146484375,0.33597561717033386,-0.9053016304969788,0.84177166223526
1771038069303980500,20.05698046875,0.7623592615127563,3.0921974182128906,2.631605386734009
1771038069322946600,20.075946533203126,1.2449424266815186,4.2711663246154785,2.3994767665863037
1771038069341912600,20.09491259765625,1.5515965223312378,3.3426520824432373,1.8338160514831543
1771038069360878600,20.113878662109375,1.556483507156372,1.1838558912277222,2.0525057315826416
1771038069379844600,20.1328447265625,1.3891065120697021,-1.1691951751708984,3.5698938369750977
1771038069398810400,20.151810302734376,1.3597849607467651,-2.342055559158325,4.835605621337891
1771038069417776400,20.1707763671875,1.1166608333587646,-3.3426520824432373,5.775115489959717
1771038069436742400,20.189742431640624,0.6157516837120056,-2.8270821571350098,5.2070112228393555
1771038069455708400,20.20870849609375,0.13927717506885529,4.185645580291748,2.344499111175537
1771038069474674400,20.22767431640625,0.4459312856197357,3.4807074069976807,-0.29077163338661194
1771038069493640400,20.246640380859375,2.3677117824554443,0.7232639193534851,1.750738501548767
1771038069512606500,20.2656064453125,0.26389357447624207,-2.106261730194092,4.401891708374023
1771038069531572500,20.284572509765624,-1.5687007904052734,-5.728689670562744,5.6663818359375
1771038069550538200,20.303538330078126,-2.182008981704712,-6.183173179626465,5.015199661254883
1771038069578987300,20.3319873046875,-1.8191553354263306,-3.6334238052368164,3.6028804779052734
1771038069597953300,20.350953369140626,-0.1282816082239151,-1.3267983198165894,1.9022328853607178
1771038069616919300,20.369919189453125,2.084270715713501,-0.23945899307727814,-0.6450732350349426
1771038069635885300,20.38888525390625,3.710392713546753,-0.5387827157974243,-1.886350393295288
1771038069654851300,20.407851318359373,4.032929420471191,-1.3365721702575684,-1.5027273893356323
1771038069673817300,20.4268173828125,3.6285367012023926,-1.1215476989746094,-1.0665699243545532
1771038069692783400,20.445783447265626,3.6065456867218018,-1.7849469184875488,-1.324354887008667
1771038069711749000,20.4647490234375,2.9126033782958984,-4.274831771850586,1.0299180746078491
1771038069730715100,20.483715087890626,1.0470222234725952,-9.213062286376953,3.5857763290405273
1771038069749681200,20.50268115234375,0.26511532068252563,-5.183798313140869,0.6340776681900024
1771038069768647200,20.521647216796875,0.013439024798572063,4.6645636558532715,-2.6523749828338623
1771038069787613200,20.54061328125,-1.082452416419983,12.633905410766602,-4.980991363525391
1771038069816062200,20.569062255859375,-2.6047275066375732,8.647401809692383,-7.858164310455322
1771038069835028200,20.5880283203125,-1.8142683506011963,-1.186299443244934,-8.170927047729492
1771038069853994000,20.606993896484376,0.564439058303833,-7.042049407958984,-4.801397323608398
1771038069872960000,20.6259599609375,-1.266933560371399,-3.031111001968384,-1.2925899028778076
1771038069891926000,20.644926025390625,-4.743975639343262,0.526565432548523,-0.9810488224029541
1771038069910892000,20.66389208984375,-4.063472747802734,-9.08111572265625,-6.359102249145508
1771038069929858000,20.682858154296873,0.28466299176216125,-2.340833902359009,-5.1703596115112305
1771038069948824000,20.701823974609376,0.778241753578186,4.7012152671813965,-1.663995623588562
1771038069967790000,20.7207900390625,1.0311397314071655,4.029263973236084,-0.8307760953903198
1771038069986755800,20.739755859375,1.3487894535064697,3.1166322231292725,0.5338957905769348
1771038070005721900,20.758721923828126,1.7458515167236328,2.4214680194854736,1.0225876569747925
1771038070024687900,20.77768798828125,2.316399335861206,2.922377109527588,1.6004657745361328
1771038070043654000,20.79665380859375,2.835634231567383,2.774547815322876,2.709796190261841
1771038070062620000,20.815619873046874,2.7232351303100586,0.6084213256835938,2.8490734100341797
1771038070081586000,20.8345859375,2.051283836364746,-2.112370491027832,2.9969027042388916
1771038070100552000,20.853552001953126,1.275485634803772,-3.2705700397491455,3.9193084239959717
1771038070119518000,20.87251806640625,0.5400044918060303,-3.981616735458374,4.880809783935547
1771038070138483700,20.891483642578127,-0.3347539007663727,-4.569268703460693,5.4696831703186035
1771038070157449700,20.91044970703125,-3.082423686981201,0.6597339510917664,8.70237922668457
1771038070176415700,20.929415771484376,-3.3157739639282227,2.5192062854766846,4.290714263916016
1771038070195381800,20.9483818359375,0.24312418699264526,0.8576541543006897,2.917490243911743
1771038070214347800,20.96734765625,-0.5913171172142029,-1.4343105554580688,4.338361740112305
1771038070233313800,20.986313720703127,-2.335946798324585,-3.9547386169433594,5.242441654205322
1771038070252279600,21.005279541015625,-2.765995740890503,-4.599811553955078,4.9944305419921875
1771038070271245600,21.02424560546875,-1.8741331100463867,-3.5185811519622803,3.97672963142395
1771038070290211600,21.043211669921874,-0.43493571877479553,-1.1972949504852295,1.8765766620635986
1771038070309177600,21.062177490234376,1.459966778755188,1.7397428750991821,-1.3023637533187866
1771038070328143600,21.0811435546875,3.1691665649414062,2.1025965213775635,-3.4464991092681885
1771038070347109600,21.100109619140625,3.7934703826904297,0.8454368710517883,-3.117853879928589
1771038070366075600,21.11907568359375,3.345095634460449,-0.6841685771942139,-2.146578788757324
1771038070385041400,21.13804150390625,3.0579891204833984,-1.8997894525527954,-2.4581198692321777
1771038070404007400,21.15700732421875,3.185049057006836,2.5473060607910156,-0.8051197528839111
1771038070422973400,21.175973388671874,2.2198827266693115,-0.84177166223526,1.673769474029541
1771038070441939500,21.194939453125,0.2003636509180069,-5.507556915283203,1.3365721702575684
1771038070460905500,21.213905517578127,-0.23945899307727814,3.1337363719940186,-2.687804937362671
1771038070479871500,21.23287158203125,-0.4874700903892517,8.407942771911621,-3.6981754302978516
1771038070498837200,21.251837158203124,-1.1239912509918213,10.510539054870605,-5.916836261749268
1771038070517803300,21.27080322265625,-2.6145012378692627,6.684082508087158,-7.821512699127197
1771038070536769300,21.289769287109376,-0.5009090900421143,-1.9584324359893799,-7.420785427093506
1771038070555735300,21.3087353515625,1.255937933921814,0.09896009415388107,-5.193572521209717
1771038070574701300,21.327701416015625,-2.483776092529297,3.288896083831787,-2.364046812057495
1771038070593667300,21.346667236328123,-5.552761077880859,2.780656576156616,-1.5772528648376465
1771038070612633000,21.365633056640625,-6.732951641082764,-12.995537757873535,-11.629643440246582
1771038070631599400,21.384599365234376,-1.0201442241668701,8.80256175994873,-5.601630210876465
1771038070650565000,21.403565185546874,1.4563016891479492,5.367057800292969,-3.576002359390259
1771038070669531100,21.42253125,1.2718204259872437,2.1807873249053955,-1.4844014644622803
1771038070688497200,21.4414970703125,0.7709113359451294,2.3506076335906982,-0.4667007029056549
1771038070707463200,21.460463134765625,0.7073814272880554,5.765341758728027,-0.11362084746360779
1771038070726429200,21.47942919921875,1.237612009048462,5.497783184051514,0.030543239787220955
1771038070745395200,21.498395263671874,1.656665325164795,5.384161949157715,0.06597339361906052
1771038070764361000,21.51736083984375,1.879020094871521,5.588191032409668,1.0592395067214966
1771038070783327000,21.536326904296875,2.333503484725952,1.099556565284729,3.0860888957977295
1771038070802293000,21.55529296875,2.813643217086792,-1.0042617321014404,4.926013469696045
1771038070821259000,21.574259033203123,3.235139846801758,-1.6798781156539917,6.183173179626465
1771038070840225000,21.59322509765625,3.6028804779052734,-0.9053016304969788,5.02863883972168
1771038070859190800,21.612190673828124,3.6786277294158936,2.294408082962036,-0.07086031138896942
1771038070878156800,21.63115673828125,4.632798671722412,5.049408435821533,-1.0836740732192993
1771038070897122800,21.650122802734376,4.24795389175415,2.2956297397613525,0.3897317349910736
1771038070916088800,21.6690888671875,1.2742639780044556,-1.0213658809661865,2.8845036029815674
1771038070935054800,21.688054931640625,-0.9419534802436829,-4.619359493255615,4.8466010093688965
1771038070954020900,21.707020751953124,-1.6591087579727173,-5.635838508605957,4.967552185058594
1771038070972987000,21.72598681640625,-1.7739512920379639,-4.377457141876221,3.7568182945251465
1771038070991952600,21.74495263671875,-0.9358448386192322,-2.1282529830932617,1.6896519660949707
1771038071010918700,21.763918701171875,0.49113526940345764,-0.6157516837120056,-1.5027273893356323
1771038071029884700,21.782884765625,1.7629557847976685,-1.7678426504135132,-2.9443681240081787
1771038071048850700,21.8018505859375,3.028667688369751,-1.459966778755188,-2.8967208862304688
1771038071067816700,21.820816650390626,3.721388339996338,-0.38240134716033936,-2.715904712677002
1771038071086782700,21.83978271484375,4.025599002838135,-1.2205078601837158,-2.1331398487091064
1771038071105748700,21.858748779296874,3.6334238052368164,-6.223490238189697,1.832594394683838
1771038071124714500,21.877714599609376,2.6047275066375732,-4.812392711639404,5.667603492736816
1771038071143680500,21.896680419921875,1.9596542119979858,-0.8442151546478271,4.389674186706543
1771038071162646500,21.915646484375,1.6432262659072876,6.605891704559326,-0.3909534513950348
1771038071181612500,21.934612548828124,0.1637117564678192,11.656521797180176,-3.9364125728607178
1771038071200578600,21.95357861328125,-1.1936297416687012,11.15561294555664,-4.966330528259277
1771038071219544300,21.97254443359375,-2.134361505508423,7.561284065246582,-6.070774078369141
1771038071238510300,21.99151025390625,-3.861887216567993,1.811824917793274,-7.082366466522217
1771038071257476400,22.010476318359373,-4.57659912109375,-4.621802806854248,-6.265028953552246
1771038071276442400,22.0294423828125,-6.802590370178223,-6.037787437438965,0.9957095980644226
1771038071295408400,22.048408447265626,-11.938741683959961,-2.967581033706665,4.827053546905518
1771038071314374400,22.06737451171875,-7.744543552398682,-11.705390930175781,0.3347539007663727
1771038071333340400,22.08634033203125,0.1441640853881836,-15.2557373046875,-9.138537406921387
1771038071352306400,22.105306396484377,1.1520910263061523,6.6682000160217285,-3.8020224571228027
1771038071371272200,22.124272216796875,1.7446298599243164,6.5619096755981445,-2.2540910243988037
1771038071390238200,22.14323828125,1.8668028116226196,3.7421576976776123,0.026878049597144127
1771038071409204200,22.162204345703124,1.731190800666809,1.731190800666809,2.1587960720062256
1771038071428170200,22.181170166015626,1.682321548461914,0.5070177912712097,3.2375833988189697
1771038071447136300,22.20013623046875,1.7299690246582031,1.0751219987869263,2.685361623764038
1771038071466102300,22.219102294921875,1.8069380521774292,1.0983349084854126,1.896124243736267
1771038071485068000,22.238068115234373,1.703091025352478,0.24801109731197357,1.830150842666626
1771038071504034000,22.257033935546875,1.3011419773101807,-0.6743947267532349,3.7678139209747314
1771038071523000000,22.276,1.0091485977172852,-1.4147628545761108,4.836827278137207
1771038071541966000,22.294966064453124,0.7415898442268372,-1.711643099784851,4.7794060707092285
1771038071560932000,22.31393212890625,0.5497782826423645,1.2461642026901245,4.8099493980407715
1771038071579898000,22.332898193359377,0.3640754222869873,10.626604080200195,4.506960391998291
1771038071598864000,22.35186376953125,-0.6878337264060974,3.0921974182128906,0.30543237924575806
1771038071617830000,22.370829833984374,2.1783437728881836,-0.19669845700263977,2.3567163944244385
1771038071636796000,22.3897958984375,0.10506874322891235,-3.1679446697235107,4.406778335571289
1771038071655762000,22.408761962890626,-1.7544035911560059,-5.925388336181641,4.8575968742370605
1771038071674728000,22.42772802734375,-2.1135921478271484,-5.7519025802612305,4.017046928405762
1771038071693694000,22.44669384765625,-0.6548470258712769,-3.8069093227386475,3.0995278358459473
1771038071722142700,22.475142822265624,1.9376630783081055,-3.0995278358459473,1.5039490461349487
1771038071741108700,22.494108642578126,3.2290313243865967,-1.1594213247299194,-0.9395100474357605
1771038071760074800,22.51307470703125,3.808130979537964,-0.036651886999607086,-2.199113130569458
1771038071779040800,22.532040771484375,3.347538948059082,-0.5375609993934631,-1.5332705974578857
1771038071798006800,22.5510068359375,3.0103416442871094,0.411722868680954,-2.2235476970672607
1771038071816972800,22.569972900390624,3.501477003097534,2.1563527584075928,-5.481900691986084
1771038071835938600,22.5889384765625,2.1697916984558105,1.9010112285614014,0.010995565913617611
1771038071854904600,22.607904541015625,0.2577849328517914,-3.5198028087615967,2.8063127994537354
1771038071873870600,22.62687060546875,-0.8100066781044006,-0.03298669680953026,-1.0458004474639893
1771038071892836600,22.645836669921874,-1.000596523284912,9.105550765991211,-3.369530200958252
1771038071911802600,22.664802734375,-2.6474878787994385,14.585007667541504,-4.170984745025635
1771038071930768600,22.6837685546875,-3.5002551078796387,8.82210922241211,-4.827053546905518
1771038071949734700,22.702734619140625,-2.6804747581481934,2.8429646492004395,-5.496561050415039
1771038071968700400,22.721700439453127,-1.811824917793274,-0.2981020212173462,-4.048811912536621
1771038071997149400,22.7501494140625,-5.692038059234619,-2.4764459133148193,0.6194168925285339
1771038072016115500,22.769115478515626,-7.50508451461792,-14.632655143737793,-5.175246238708496
1771038072035081500,22.78808154296875,-3.4049603939056396,-1.7763947248458862,-6.2381510734558105
1771038072063530500,22.816530517578126,0.7391464114189148,4.500851631164551,-2.7586653232574463
1771038072082496300,22.835496337890625,0.6682860851287842,2.3176209926605225,-3.0860888957977295
1771038072101462300,22.854462158203123,0.25900667905807495,1.9364413022994995,-0.6462949514389038
1771038072120428300,22.87342822265625,0.24801109731197357,2.2589778900146484,1.4477494955062866
1771038072139394300,22.892394287109376,0.6316341757774353,2.937037944793701,2.307847023010254
1771038072167843300,22.92084326171875,1.3121376037597656,3.191157579421997,1.9010112285614014
1771038072186809300,22.939809326171876,1.5833615064620972,1.9730932712554932,2.017075538635254
1771038072205775000,22.958775146484374,1.7079778909683228,0.2968802750110626,2.6816964149475098
1771038072224741000,22.9777412109375,1.5968005657196045,0.04153880476951599,5.308414936065674
1771038072243707100,22.99670703125,1.841146469116211,-0.8344413042068481,6.141634464263916
1771038072262673200,23.015673095703125,1.9107850790023804,-2.1025965213775635,6.527700901031494
1771038072281639200,23.03463916015625,1.2095122337341309,-2.9382596015930176,2.4263548851013184
1771038072300605200,23.053605224609374,1.1753038167953491,5.159363746643066,-0.8649845123291016
1771038072319571200,23.0725712890625,3.0188937187194824,5.3633928298950195,-0.794124186038971
1771038072338537200,23.091537109375,2.386037826538086,-0.7696896195411682,2.5558581352233887
1771038072357503000,23.1105029296875,-0.4557051360607147,-5.032304286956787,5.704255104064941
1771038072395435000,23.14843505859375,-1.8949025869369507,-5.375609874725342,5.0225300788879395
1771038072414401000,23.167401123046876,-0.7806851863861084,-3.1899359226226807,3.2033748626708984
1771038072433367000,23.186366943359374,1.3451242446899414,-1.5870267152786255,1.3439024686813354
1771038072452333000,23.2053330078125,3.996277332305908,-1.061682939529419,-0.8784235715866089
1771038072471299000,23.224299072265627,5.326740741729736,-1.7690644264221191,-2.3897030353546143
1771038072490265000,23.24326513671875,4.875922679901123,-3.8460047245025635,-1.666439175605774
1771038072509230800,23.26223095703125,4.382343769073486,-2.6230533123016357,-2.1135921478271484
1771038072528196900,23.28119677734375,4.354244232177734,1.6249003410339355,-3.7336056232452393
1771038072547163000,23.300162841796876,2.4740023612976074,3.889986991882324,1.0067051649093628
1771038072566129000,23.31912890625,-0.1649334877729416,-2.863734006881714,2.2821907997131348
1771038072585095000,23.338094970703125,-1.7763947248458862,1.0262528657913208,-0.8466585874557495
1771038072604061000,23.35706103515625,-2.335946798324585,10.73655891418457,-2.9920156002044678
1771038072623027000,23.37602685546875,-3.400073289871216,13.457350730895996,-3.3341000080108643
1771038072641992700,23.39499267578125,-3.9241952896118164,7.516080379486084,-4.2516188621521
1771038072660958700,23.413958740234374,-3.3573129177093506,-0.12950333952903748,-5.272984981536865
1771038072689407700,23.44240771484375,-2.9797983169555664,-4.318813800811768,-2.0341796875
1771038072708373800,23.461373779296874,-6.071995735168457,-4.838048934936523,0.4471530318260193
1771038072727339800,23.48033984375,-6.565574645996094,-15.305828094482422,-8.260113716125488
1771038072746305800,23.499305908203127,-1.2034035921096802,5.452579021453857,-6.219825267791748
1771038072765271800,23.518271728515625,1.5381574630737305,4.421439170837402,-2.8954989910125732
1771038072784237800,23.53723779296875,1.3023637533187866,-0.27000224590301514,-2.4715588092803955
1771038072803203800,23.556203857421874,0.6927206516265869,-0.03298669680953026,-0.8710931539535522
1771038072822169600,23.575169677734376,0.1441640853881836,2.3542728424072266,1.148425817489624
1771038072841135600,23.594135498046874,0.18570289015769958,4.003607749938965,2.1526875495910645
1771038072860101600,23.6131015625,0.5082395076751709,3.378082275390625,2.142913579940796
1771038072879067600,23.632067626953123,0.794124186038971,1.7140865325927734,2.397033452987671
1771038072898033700,23.65103369140625,1.0836740732192993,0.6414080262184143,3.325547933578491
1771038072916999700,23.669999755859376,1.3915499448776245,0.2663370370864868,4.8185014724731445
1771038072935965700,23.688965576171874,1.869246244430542,-0.8124501705169678,6.126973628997803
1771038072954931700,23.707931640625,2.098931312561035,-1.64566969871521,5.9693708419799805
1771038072973897700,23.726897705078127,1.8912373781204224,-1.2608249187469482,4.522842884063721
1771038072992863500,23.745863525390625,1.72141695022583,2.674365997314453,0.2932150959968567
1771038073011829500,23.76482958984375,1.92666757106781,6.555800914764404,-1.1227694749832153
1771038073030795500,23.78379541015625,2.9907939434051514,1.525940179824829,1.5943571329116821
1771038073049761500,23.802761474609376,0.6780598759651184,-2.5839579105377197,4.174649715423584
1771038073068727600,23.8217275390625,-1.4282019138336182,-5.6089606285095215,5.327962398529053
1771038073087693600,23.840693603515625,-2.6340489387512207,-5.6541643142700195,4.641350746154785
1771038073106659600,23.85965966796875,-1.7067562341690063,-3.666410446166992,2.8930556774139404
1771038073125625600,23.87862548828125,0.08063415437936783,-2.8967208862304688,1.666439175605774
1771038073144591600,23.897591552734376,1.5968005657196045,-1.832594394683838,0.06475166976451874
1771038073163557600,23.9165576171875,2.828303813934326,-1.109330415725708,-1.4245367050170898
1771038073182523600,23.935523681640625,4.057363986968994,-0.665842592716217,-2.067166328430176
1771038073201489700,23.95448974609375,4.756193161010742,-1.497840404510498,-1.6481131315231323
1771038073220455400,23.973455322265625,4.582707405090332,-1.9511021375656128,-1.459966778755188
1771038073239421400,23.99242138671875,4.26383638381958,1.3072506189346313,-2.5754058361053467
1771038073258387500,24.011387451171874,2.335946798324585,2.8600687980651855,2.405585527420044
1771038073277353500,24.030353515625,0.33597561717033386,-1.6297872066497803,1.674991250038147
1771038073296319500,24.049319580078127,-0.5962040424346924,4.70610237121582,-4.359130859375
1771038073315285500,24.068285400390625,-1.237612009048462,11.081087112426758,-4.23573637008667
1771038073334251500,24.08725146484375,-2.5350887775421143,11.452492713928223,-4.124558925628662
1771038073353217500,24.106217529296874,-4.1196722984313965,5.156920433044434,-5.265654563903809
1771038073372183600,24.12518359375,-4.900357246398926,-1.3829978704452515,-5.379275321960449
1771038073391149600,24.144149658203126,-4.5167341232299805,-6.250368595123291,-0.8808670043945312
1771038073410115600,24.163115478515625,-6.627882957458496,-5.828871726989746,3.1276276111602783
1771038073429081600,24.18208154296875,-6.278468132019043,-13.220335960388184,-3.3939647674560547
1771038073448047600,24.201047607421874,0.006108647678047419,-0.42271843552589417,-7.492867469787598
1771038073476496600,24.22949658203125,2.592510223388672,2.785543441772461,-3.4464991092681885
1771038073495462700,24.248462646484374,2.0830488204956055,-0.17348559200763702,-3.043328285217285
1771038073514428700,24.2674287109375,1.4074324369430542,-0.3555232882499695,-0.7073814272880554
1771038073533394400,24.28639453125,1.0519092082977295,-0.4679224193096161,3.0225589275360107
1771038073552360400,24.3053603515625,0.8051197528839111,-0.5229002237319946,3.523468017578125
1771038073571326500,24.324326416015627,0.8051197528839111,1.8545855283737183,2.2870776653289795
1771038073590292500,24.34329248046875,1.0079269409179688,3.176496744155884,1.5760310888290405
1771038073609258500,24.362258544921875,0.9089667797088623,2.229656457901001,1.616348147392273
1771038073628224500,24.381224609375,0.5974257588386536,0.06597339361906052,2.4935500621795654
1771038073647190500,24.4001904296875,0.12095122784376144,-1.7079778909683228,5.327962398529053
1771038073666156500,24.419156494140626,-0.14538581669330597,-2.7696609497070312,5.914392948150635
