time,seconds_elapsed,z,y,x
1771038049470611200,0.223611083984375,-26.493751525878906,43.51875305175781,40.16250228881836
1771038049480611000,0.233611083984375,-20.212501525878906,52.16250228881836,25.012500762939453
1771038049490611200,0.243611083984375,-19.03125,52.593753814697266,27.187501907348633
1771038049500611000,0.253611083984375,-19.125,52.500003814697266,29.043750762939453
1771038049510611200,0.263611083984375,-19.125,52.85625076293945,30.543750762939453
1771038049520611000,0.273611083984375,-18.731250762939453,53.17500305175781,31.98750114440918
1771038049530611200,0.283611083984375,-18.787500381469727,53.306251525878906,32.98125076293945
1771038049540611000,0.293611083984375,-18.600000381469727,53.60625076293945,33.65625
1771038049550611200,0.303611083984375,-18.39375114440918,54.281253814697266,35.79375076293945
1771038049560611000,0.313611083984375,-18,54.468753814697266,36.95625305175781
1771038049570611200,0.323611083984375,-18.168750762939453,54.76875305175781,37.81875228881836
1771038049580611000,0.333611083984375,-17.962501525878906,55.42500305175781,38.118751525878906
1771038049590611200,0.343611083984375,-17.71875,55.72500228881836,38.17500305175781
1771038049600611000,0.353611083984375,-17.981250762939453,56.10000228881836,37.3125
1771038049610611200,0.363611083984375,-17.681251525878906,56.10000228881836,35.94375228881836
1771038049620611000,0.373611083984375,-17.475000381469727,56.36250305175781,34.837501525878906
1771038049630611200,0.383611083984375,-17.606250762939453,56.51250076293945,33.35625076293945
1771038049640611000,0.393611083984375,-17.662500381469727,56.60625076293945,31.575000762939453
1771038049650611200,0.403611083984375,-17.868751525878906,56.83125305175781,29.92500114440918
1771038049660611000,0.413611083984375,-18.20625114440918,57.03750228881836,28.256250381469727
1771038049670611200,0.423611083984375,-18.693750381469727,57.22500228881836,26.812501907348633
1771038049680611000,0.433611083984375,-19.275001525878906,57.30000305175781,26.306251525878906
1771038049690611200,0.443611083984375,-20.287500381469727,58.05000305175781,26.400001525878906
1771038049700611000,0.453611083984375,-21.450000762939453,58.462501525878906,26.568750381469727
1771038049710611200,0.463611083984375,-21.9375,58.462501525878906,26.45625114440918
1771038049720611000,0.473611083984375,-22.70625114440918,58.875003814697266,27.431251525878906
1771038049730611200,0.483611083984375,-23.45625114440918,58.85625076293945,27.356250762939453
1771038049740611000,0.493611083984375,-24.187501907348633,59.025001525878906,27.656251907348633
1771038049750611200,0.503611083984375,-24.95625114440918,59.118751525878906,28.125001907348633
1771038049760611000,0.513611083984375,-25.481250762939453,59.41875076293945,27.95625114440918
1771038049770611200,0.523611083984375,-25.968751907348633,59.32500076293945,27.600000381469727
1771038049780611000,0.533611083984375,-26.512500762939453,59.04375076293945,26.662500381469727
1771038049790611200,0.543611083984375,-27.11250114440918,59.26875305175781,26.775001525878906
1771038049800611000,0.553611083984375,-27.562501907348633,59.250003814697266,25.80000114440918
1771038049810611200,0.563611083984375,-27.825000762939453,59.437503814697266,25.89375114440918
1771038049820611000,0.573611083984375,-28.05000114440918,58.95000076293945,25.312501907348633
1771038049830611200,0.583611083984375,-28.05000114440918,59.08125305175781,24.76875114440918
1771038049840611000,0.593611083984375,-27.787500381469727,58.556251525878906,24.131250381469727
1771038049850611200,0.603611083984375,-27.375001907348633,58.25625228881836,23.493751525878906
1771038049860611000,0.613611083984375,-27.01875114440918,57.937503814697266,23.118751525878906
1771038049870611200,0.623611083984375,-27.075000762939453,57.58125305175781,22.350000381469727
1771038049880611000,0.633611083984375,-27.075000762939453,57.243751525878906,22.03125
1771038049890611200,0.643611083984375,-26.83125114440918,56.906253814697266,21.318750381469727
1771038049900611000,0.653611083984375,-26.812501907348633,56.79375076293945,20.71875
1771038049910611200,0.663611083984375,-27.168750762939453,56.343753814697266,20.15625
1771038049920611000,0.673611083984375,-27.525001525878906,56.32500076293945,19.743751525878906
1771038049930611200,0.683611083984375,-28.481250762939453,56.28750228881836,20.15625
1771038049940611000,0.693611083984375,-28.856250762939453,56.343753814697266,20.231250762939453
1771038049950611200,0.703611083984375,-28.968751907348633,56.26875305175781,20.231250762939453
1771038049960611000,0.713611083984375,-29.156251907348633,56.41875076293945,20.381250381469727
1771038049970611200,0.723611083984375,-29.587501525878906,56.70000076293945,20.756250381469727
1771038049980611000,0.733611083984375,-29.92500114440918,57.000003814697266,21.28125
1771038049990611200,0.743611083984375,-30.000001907348633,57.48750305175781,21.918750762939453
1771038050000611000,0.753611083984375,-30.262500762939453,57.39375305175781,22.200000762939453
1771038050010611200,0.763611083984375,-29.83125114440918,57.76875305175781,21.993751525878906
1771038050020611000,0.773611083984375,-29.812501907348633,58.16250228881836,22.368751525878906
1771038050030611200,0.783611083984375,-29.887500762939453,58.33125305175781,22.537500381469727
1771038050040611000,0.793611083984375,-29.92500114440918,58.500003814697266,22.725000381469727
1771038050050611200,0.803611083984375,-30.037500381469727,58.29375076293945,22.631250381469727
1771038050060611000,0.813611083984375,-30.131250381469727,58.087501525878906,22.80000114440918
1771038050070611200,0.823611083984375,-29.962501525878906,57.843753814697266,22.51875114440918
1771038050080611000,0.833611083984375,-30.056251525878906,58.275001525878906,22.725000381469727
1771038050090611200,0.843611083984375,-30.243751525878906,58.275001525878906,22.80000114440918
1771038050100611000,0.853611083984375,-30.056251525878906,58.181251525878906,22.762500762939453
1771038050110611200,0.863611083984375,-29.981250762939453,58.48125076293945,22.61250114440918
1771038050120611000,0.873611083984375,-29.64375114440918,58.593753814697266,22.743751525878906
1771038050130611200,0.883611083984375,-29.418750762939453,59.19375228881836,22.912500381469727
1771038050140611000,0.893611083984375,-28.98750114440918,59.83125305175781,23.55000114440918
1771038050150611200,0.903611083984375,-28.51875114440918,60.431251525878906,23.71875
1771038050160611000,0.913611083984375,-27.95625114440918,60.78750228881836,24.131250381469727
1771038050170611200,0.923611083984375,-27.412500381469727,61.181251525878906,23.981250762939453
1771038050180611000,0.933611083984375,-27.075000762939453,61.650001525878906,24.468751907348633
1771038050190611200,0.943611083984375,-26.73750114440918,62.19375228881836,25.181251525878906
1771038050200611000,0.953611083984375,-26.606250762939453,62.55000305175781,25.837501525878906
1771038050210611200,0.963611083984375,-26.45625114440918,62.906253814697266,26.700000762939453
1771038050220611000,0.973611083984375,-26.418750762939453,63.30000305175781,27.412500381469727
1771038050230611200,0.983611083984375,-26.493751525878906,63.39375305175781,28.200000762939453
1771038050240611000,0.993611083984375,-26.606250762939453,63.60000228881836,29.325000762939453
1771038050250611200,1.003611083984375,-26.531251907348633,63.95625305175781,30.843751907348633
1771038050260611000,1.013611083984375,-26.381250381469727,64.16250610351562,31.950000762939453
1771038050270611200,1.023611083984375,-26.043750762939453,64.25625610351562,32.8125
1771038050280611000,1.033611083984375,-25.575000762939453,64.44375610351562,33.712501525878906
1771038050290611200,1.043611083984375,-24.806251525878906,64.72500610351562,34.80000305175781
1771038050300611000,1.053611083984375,-24,64.6875,35.56875228881836
1771038050310611200,1.063611083984375,-23.17500114440918,64.98750305175781,36.5625
1771038050320611000,1.073611083984375,-22.106250762939453,65.25,37.087501525878906
1771038050330611200,1.083611083984375,-20.887500762939453,65.4937515258789,37.743751525878906
1771038050340611000,1.093611083984375,-19.912500381469727,66.01875305175781,38.79375076293945
1771038050350611200,1.103611083984375,-18.037500381469727,66.28125,39.63750076293945
1771038050360611000,1.113611083984375,-16.556251525878906,66.86250305175781,40.40625
1771038050370611200,1.123611083984375,-14.268750190734863,66.7125015258789,40.181251525878906
1771038050380611000,1.133611083984375,-11.925000190734863,67.44375610351562,40.21875
1771038050390611200,1.143611083984375,-9.318750381469727,67.63125610351562,39.78750228881836
1771038050400611000,1.153611083984375,-6.956250190734863,67.53750610351562,39.20625305175781
1771038050410611200,1.163611083984375,-5.175000190734863,67.35000610351562,39.525001525878906
1771038050420611000,1.173611083984375,-3.0375001430511475,66.86250305175781,38.92500305175781
1771038050430611200,1.183611083984375,-1.6875001192092896,66.22500610351562,38.55000305175781
1771038050440611000,1.193611083984375,0.4687500298023224,65.36250305175781,37.63125228881836
1771038050450611200,1.203611083984375,1.631250023841858,64.7437515258789,37.03125
1771038050460611000,1.213611083984375,2.34375,63.30000305175781,36.13125228881836
1771038050470611200,1.223611083984375,3.262500047683716,62.156253814697266,35.75625228881836
1771038050480611000,1.233611083984375,4.012500286102295,61.031253814697266,36.67500305175781
1771038050490611200,1.243611083984375,5.231250286102295,59.98125076293945,36.60000228881836
1771038050500611000,1.253611083984375,6.543750286102295,58.80000305175781,36.22500228881836
1771038050510611200,1.263611083984375,7.968750476837158,58.23750305175781,36.900001525878906
1771038050520611000,1.273611083984375,9.018750190734863,57.656253814697266,37.20000076293945
1771038050530611200,1.283611083984375,9.675000190734863,57.056251525878906,37.72500228881836
1771038050540611000,1.293611083984375,11.0625,57.093753814697266,38.625
1771038050550611200,1.303611083984375,11.831250190734863,57.13125228881836,40.40625
1771038050560611000,1.313611083984375,-1.2937500476837158,-31.387500762939453,60.806251525878906
1771038050570611200,1.323611083984375,-0.6937500238418579,-30.693750381469727,61.66875076293945
1771038050580611000,1.333611083984375,-0.24375000596046448,-29.568750381469727,62.94375228881836
1771038050590611200,1.343611083984375,0.28125,-28.875001907348633,63.150001525878906
1771038050600611000,1.353611083984375,0.9750000238418579,-27.637500762939453,64.3687515258789
1771038050610611200,1.363611083984375,1.8750001192092896,-25.687501907348633,65.64375305175781
1771038050620611000,1.373611083984375,2.793750047683716,-24.01875114440918,66.8062515258789
1771038050630611200,1.383611083984375,3.731250047683716,-22.275001525878906,66.88125610351562
1771038050640611000,1.393611083984375,9.862500190734863,-10.425000190734863,58.48125076293945
1771038050650611200,1.403611083984375,12.018750190734863,-9.1875,56.718753814697266
1771038050660611000,1.413611083984375,14.21250057220459,-7.931250095367432,54.375003814697266
1771038050670611200,1.423611083984375,15.543750762939453,-6.262500286102295,53.41875076293945
1771038050680611000,1.433611083984375,17.34375,-4.96875,51.91875076293945
1771038050690611200,1.443611083984375,19.650001525878906,-4.050000190734863,50.19375228881836
1771038050700611000,1.453611083984375,21.46875,-3.0375001430511475,48.11250305175781
1771038050710611200,1.463611083984375,23.231250762939453,-1.7062500715255737,46.181251525878906
1771038050720611000,1.473611083984375,24,-0.4312500059604645,45.5625
1771038050730611200,1.483611083984375,24.806251525878906,0.675000011920929,45.09375
1771038050740611000,1.493611083984375,25.650001525878906,1.256250023841858,45.056251525878906
1771038050750611200,1.503611083984375,26.83125114440918,1.631250023841858,43.78125
1771038050760611000,1.513611083984375,27.562501907348633,1.8937500715255737,42.31875228881836
1771038050770611200,1.523611083984375,28.368751525878906,1.7812501192092896,40.931251525878906
1771038050780611000,1.533611083984375,29.118751525878906,1.21875,39.16875076293945
1771038050790611200,1.543611083984375,30.11250114440918,0.3187500238418579,37.38750076293945
1771038050800611000,1.553611083984375,31.368751525878906,-0.4125000238418579,35.47500228881836
1771038050810611200,1.563611083984375,32.45625305175781,-0.9750000238418579,33.76875305175781
1771038050820611000,1.573611083984375,33.41250228881836,-1.0500000715255737,31.931251525878906
1771038050830611200,1.583611083984375,34.57500076293945,-0.956250011920929,30.712501525878906
1771038050840611000,1.593611083984375,34.72500228881836,-0.8250000476837158,30.656251907348633
1771038050850611200,1.603611083984375,34.76250076293945,-0.581250011920929,30.150001525878906
1771038050860611000,1.613611083984375,35.025001525878906,-0.24375000596046448,30.075000762939453
1771038050870611200,1.623611083984375,34.95000076293945,-0.01875000074505806,30.037500381469727
1771038050880611000,1.633611083984375,34.76250076293945,0.11250000447034836,30.187501907348633
1771038050890611200,1.643611083984375,34.556251525878906,0.03750000149011612,30.187501907348633
1771038050900611000,1.653611083984375,34.16250228881836,-0.30000001192092896,31.368751525878906
1771038050910611200,1.663611083984375,33.431251525878906,-0.6937500238418579,32.19375228881836
1771038050920611000,1.673611083984375,33.35625076293945,-1.2937500476837158,32.15625
1771038050930611200,1.683611083984375,32.8125,-1.9687501192092896,32.92500305175781
1771038050940611000,1.693611083984375,32.45625305175781,-2.9250001907348633,33.78750228881836
1771038050950611200,1.703611083984375,32.13750076293945,-3.7687501907348633,35.00625228881836
1771038050960611000,1.713611083984375,31.743751525878906,-4.950000286102295,36.525001525878906
1771038050970611200,1.723611083984375,30.86250114440918,-5.8125,38.51250076293945
1771038050980611000,1.733611083984375,29.868751525878906,-6.956250190734863,39.91875076293945
1771038050990611200,1.743611083984375,29.006250381469727,-8.418750762939453,41.025001525878906
1771038051000611000,1.753611083984375,27.693750381469727,-9.862500190734863,42.30000305175781
1771038051010611200,1.763611083984375,26.662500381469727,-11.606250762939453,43.51875305175781
1771038051020611000,1.773611083984375,25.031251907348633,-12.881250381469727,45.26250076293945
1771038051030611200,1.783611083984375,23.493751525878906,-14.287500381469727,46.57500076293945
1771038051040611000,1.793611083984375,22.21875,-15.562500953674316,47.08125305175781
1771038051050611200,1.803611083984375,21.01875114440918,-17.306251525878906,47.26875305175781
1771038051060611000,1.813611083984375,19.96875,-18.731250762939453,47.25
1771038051070611200,1.823611083984375,18.787500381469727,-20.212501525878906,47.13750076293945
1771038051080611000,1.833611083984375,18.168750762939453,-21.131250381469727,47.400001525878906
1771038051090611200,1.843611083984375,16.98750114440918,-21.58125114440918,47.90625
1771038051100611000,1.853611083984375,16.42500114440918,-22.631250381469727,46.96875
1771038051110611200,1.863611083984375,15.956250190734863,-23.681251525878906,46.6875
1771038051120611000,1.873611083984375,14.906250953674316,-24.037500381469727,46.6875
1771038051130611200,1.883611083984375,14.30625057220459,-24.20625114440918,46.40625
1771038051140611000,1.893611083984375,13.575000762939453,-23.775001525878906,46.42500305175781
1771038051150611200,1.903611083984375,13.406250953674316,-22.950000762939453,46.72500228881836
1771038051160611000,1.913611083984375,13.050000190734863,-22.5,46.06875228881836
1771038051170611200,1.923611083984375,13.593750953674316,-21.506250381469727,44.98125076293945
1771038051180611000,1.933611083984375,13.856250762939453,-19.556251525878906,44.85000228881836
1771038051190611200,1.943611083984375,14.531250953674316,-16.98750114440918,43.53750228881836
1771038051200611000,1.953611083984375,15.731250762939453,-14.531250953674316,42.243751525878906
1771038051210611200,1.963611083984375,16.70625114440918,-11.550000190734863,41.28750228881836
1771038051220611000,1.973611083984375,18.131250381469727,-8.700000762939453,39.48750305175781
1771038051230611200,1.983611083984375,19.087501525878906,-5.606250286102295,37.05000305175781
1771038051240611000,1.993611083984375,19.931251525878906,-2.34375,34.91250228881836
1771038051250611200,2.003611083984375,20.34375,0.30000001192092896,32.681251525878906
1771038051260611000,2.013611083984375,20.962501525878906,3.187500238418579,30.975000381469727
1771038051270611200,2.023611083984375,20.92500114440918,5.925000190734863,29.868751525878906
1771038051280611000,2.033611083984375,20.700000762939453,8.081250190734863,28.61250114440918
1771038051290611200,2.043611083984375,20.92500114440918,9.825000762939453,27.093751907348633
1771038051300611000,2.053611083984375,21.30000114440918,10.856250762939453,25.650001525878906
1771038051310611200,2.063611083984375,21.712501525878906,11.643750190734863,24.900001525878906
1771038051320611000,2.073611083984375,22.387500762939453,12.15000057220459,24.262500762939453
1771038051330611200,2.083611083984375,23.17500114440918,12.787500381469727,23.53125
1771038051340611000,2.093611083984375,23.775001525878906,12.787500381469727,21.881250381469727
1771038051350611200,2.103611083984375,24.656251907348633,12.52500057220459,20.400001525878906
1771038051360611000,2.113611083984375,25.481250762939453,12.562500953674316,19.181251525878906
1771038051370611200,2.123611083984375,26.062501907348633,12.52500057220459,18.39375114440918
1771038051380611000,2.133611083984375,25.912500381469727,12.918750762939453,18.375
1771038051390611200,2.143611083984375,26.062501907348633,13.18125057220459,18.431251525878906
1771038051400611000,2.153611083984375,25.406251907348633,13.668750762939453,19.125
1771038051410611200,2.163611083984375,25.05000114440918,13.762500762939453,19.762500762939453
1771038051420611000,2.173611083984375,24.48750114440918,13.912500381469727,20.887500762939453
1771038051430611200,2.183611083984375,23.681251525878906,13.912500381469727,21.918750762939453
1771038051440611000,2.193611083984375,22.80000114440918,13.93125057220459,22.462501525878906
1771038051450611200,2.203611083984375,21.918750762939453,14.418750762939453,24.01875114440918
1771038051460611000,2.213611083984375,21.09375,15.506250381469727,24.656251907348633
1771038051470611200,2.223611083984375,20.493751525878906,15.562500953674316,24.131250381469727
1771038051480611000,2.233611083984375,20.418750762939453,15.61875057220459,23.850000381469727
1771038051490611200,2.243611083984375,19.61250114440918,16.087501525878906,23.64375114440918
1771038051500611000,2.253611083984375,18.975000381469727,16.912500381469727,23.681251525878906
1771038051510611200,2.263611083984375,18.450000762939453,17.8125,23.53125
1771038051520611000,2.273611083984375,18.01875114440918,18.67500114440918,24.693750381469727
1771038051530611200,2.283611083984375,17.231250762939453,18.65625,24.30000114440918
1771038051540611000,2.293611083984375,16.293750762939453,17.83125114440918,25.05000114440918
1771038051550611200,2.303611083984375,14.475000381469727,17.36250114440918,26.625001907348633
1771038051560611000,2.313611083984375,12.881250381469727,16.837501525878906,27.86250114440918
1771038051570611200,2.323611083984375,11.40000057220459,16.387500762939453,29.381250381469727
1771038051580611000,2.333611083984375,9.9375,15.43125057220459,30.86250114440918
1771038051590611200,2.343611083984375,8.606250762939453,14.718750953674316,32.66250228881836
1771038051600611000,2.353611083984375,6.750000476837158,13.856250762939453,34.25625228881836
1771038051610611200,2.363611083984375,5.793750286102295,13.293750762939453,35.775001525878906
1771038051620611000,2.373611083984375,4.856250286102295,12.80625057220459,37.462501525878906
1771038051630611200,2.383611083984375,4.575000286102295,13.012500762939453,39.525001525878906
1771038051640611000,2.393611083984375,3.9937500953674316,12.693750381469727,40.98750305175781
1771038051650611200,2.403611083984375,3.4125001430511475,12.52500057220459,42.900001525878906
1771038051660611000,2.413611083984375,2.4375,12.33750057220459,44.66250228881836
1771038051670611200,2.423611083984375,1.7812501192092896,11.756250381469727,46.01250076293945
1771038051680611000,2.433611083984375,1.8375000953674316,11.11875057220459,46.6875
1771038051690611200,2.443611083984375,1.5,10.950000762939453,48.243751525878906
1771038051700611000,2.453611083984375,1.7812501192092896,10.631250381469727,49.275001525878906
1771038051710611200,2.463611083984375,2.043750047683716,10.256250381469727,49.89375305175781
1771038051720611000,2.473611083984375,2.4750001430511475,10.59375,51.01875305175781
1771038051730611200,2.483611083984375,3.6750001907348633,10.425000190734863,51.03750228881836
1771038051740611000,2.493611083984375,5.493750095367432,10.331250190734863,51.093753814697266
1771038051750611200,2.503611083984375,7.087500095367432,10.631250381469727,51.16875076293945
1771038051760611000,2.513611083984375,8.418750762939453,10.78125,50.962501525878906
1771038051770611200,2.523611083984375,9.862500190734863,10.706250190734863,50.306251525878906
1771038051780611000,2.533611083984375,9.975000381469727,11.02500057220459,49.66875076293945
1771038051790611200,2.543611083984375,9.375,11.550000190734863,48.97500228881836
1771038051800611000,2.553611083984375,8.625,11.981250762939453,48.187503814697266
1771038051810611200,2.563611083984375,6.993750095367432,12.675000190734863,48.22500228881836
1771038051820611000,2.573611083984375,5.587500095367432,13.200000762939453,48.03750228881836
1771038051830611200,2.583611083984375,4.5,13.18125057220459,47.625
1771038051840611000,2.593611083984375,3.637500047683716,13.875000953674316,48.07500076293945
1771038051850611200,2.603611083984375,3.4875001907348633,14.606250762939453,48.07500076293945
1771038051860611000,2.613611083984375,4.762500286102295,14.77500057220459,48.26250076293945
1771038051870611200,2.623611083984375,7.031250476837158,14.343750953674316,48.13125228881836
1771038051880611000,2.633611083984375,10.03125,13.950000762939453,48.056251525878906
1771038051890611200,2.643611083984375,13.631250381469727,13.331250190734863,48.03750228881836
1771038051900611000,2.653611083984375,16.70625114440918,12.637500762939453,47.66250228881836
1771038051910611200,2.663611083984375,19.462501525878906,12.506250381469727,47.56875228881836
1771038051920611000,2.673611083984375,22.162500381469727,12.43125057220459,46.33125305175781
1771038051930611200,2.683611083984375,24.075000762939453,12,45.431251525878906
1771038051940611000,2.693611083984375,25.556251525878906,11.77500057220459,44.118751525878906
1771038051950611200,2.703611083984375,26.212501525878906,12.168750762939453,43.53750228881836
1771038051960611000,2.713611083984375,26.531251907348633,12.018750190734863,42.69375228881836
1771038051970611200,2.723611083984375,27.48750114440918,11.53125,41.90625
1771038051980611000,2.733611083984375,28.593751907348633,11.0625,41.70000076293945
1771038051990611200,2.743611083984375,29.64375114440918,10.293750762939453,40.875
1771038052000611000,2.753611083984375,30.787500381469727,7.931250095367432,41.41875076293945
1771038052010611200,2.763611083984375,31.23750114440918,6.543750286102295,43.16250228881836
1771038052020611000,2.773611083984375,32.08125305175781,5.231250286102295,43.85625076293945
1771038052030611200,2.783611083984375,33.31875228881836,3.6937501430511475,44.45625305175781
1771038052040611000,2.793611083984375,34.81875228881836,2.53125,44.90625
1771038052050611200,2.803611083984375,35.34375,1.7625000476837158,45.22500228881836
1771038052060611000,2.813611083984375,36.056251525878906,1.03125,44.94375228881836
1771038052070611200,2.823611083984375,36.58125305175781,0.5625,45.431251525878906
1771038052080611000,2.833611083984375,36.63750076293945,1.3312500715255737,45.31875228881836
1771038052090611200,2.843611083984375,37.51875305175781,1.4250000715255737,44.212501525878906
1771038052100611000,2.853611083984375,38.00625228881836,1.5187500715255737,43.91250228881836
1771038052110611200,2.863611083984375,38.19375228881836,1.6875001192092896,43.72500228881836
1771038052120611000,2.873611083984375,37.837501525878906,2.043750047683716,44.08125305175781
1771038052130611200,2.883611083984375,37.3125,2.4000000953674316,44.00625228881836
1771038052140611000,2.893611083984375,36.78750228881836,3.3000001907348633,44.38125228881836
1771038052150611200,2.903611083984375,35.98125076293945,4.162500381469727,45.11250305175781
1771038052160611000,2.913611083984375,35.28750228881836,4.668750286102295,45.26250076293945
1771038052170611200,2.923611083984375,34.42500305175781,5.193750381469727,45.22500228881836
1771038052180611000,2.933611083984375,33.525001525878906,6.168750286102295,45.45000076293945
1771038052190611200,2.943611083984375,32.90625,6.525000095367432,45.5625
1771038052200611000,2.953611083984375,32.212501525878906,6.825000286102295,45.1875
1771038052210611200,2.963611083984375,31.200000762939453,7.612500190734863,45.243751525878906
1771038052220611000,2.973611083984375,29.850000381469727,8.625,45.375
1771038052230611200,2.983611083984375,28.856250762939453,8.96250057220459,44.51250076293945
1771038052240611000,2.993611083984375,27.318750381469727,9.731250762939453,44.64375305175781
1771038052250611200,3.003611083984375,25.387500762939453,10.96875,45.35625076293945
1771038052260611000,3.013611083984375,22.78125,11.53125,46.14375305175781
1771038052270611200,3.023611083984375,19.89375114440918,12.262500762939453,46.59375
1771038052280611000,3.033611083984375,17.587501525878906,13.218750953674316,47.493751525878906
1771038052290611200,3.043611083984375,15.71250057220459,13.781250953674316,48.48750305175781
1771038052300611000,3.053611083984375,13.74375057220459,13.406250953674316,48.843753814697266
1771038052310611200,3.063611083984375,11.268750190734863,13.593750953674316,50.025001525878906
1771038052320611000,3.073611083984375,9.168750762939453,13.443750381469727,50.88750076293945
1771038052330611200,3.083611083984375,7.368750095367432,12.80625057220459,50.70000076293945
1771038052340611000,3.093611083984375,6.168750286102295,12.675000190734863,50.41875076293945
1771038052350611200,3.103611083984375,5.175000190734863,13.012500762939453,50.587501525878906
1771038052360611000,3.113611083984375,3.9562501907348633,13.068750381469727,49.837501525878906
1771038052370611200,3.123611083984375,2.606250047683716,13.256250381469727,48.937503814697266
1771038052380611000,3.133611083984375,1.8375000953674316,13.74375057220459,48.337501525878906
1771038052390611200,3.143611083984375,1.5750000476837158,14.062500953674316,47.587501525878906
1771038052400611000,3.153611083984375,1.6687500476837158,14.381250381469727,46.556251525878906
1771038052410611200,3.163611083984375,1.7437500953674316,15.018750190734863,45.97500228881836
1771038052420611000,3.173611083984375,2.3812501430511475,15.225000381469727,45.5625
1771038052430611200,3.183611083984375,2.9625000953674316,15.375000953674316,44.92500305175781
1771038052440611000,3.193611083984375,3.637500047683716,15.600000381469727,44.36250305175781
1771038052450611200,3.203611083984375,4.706250190734863,15.506250381469727,44.17500305175781
1771038052460611000,3.213611083984375,5.568750381469727,15.206250190734863,43.91250228881836
1771038052470611200,3.223611083984375,6.093750476837158,15.112500190734863,43.40625
1771038052480611000,3.233611083984375,7.218750476837158,15.43125057220459,43.20000076293945
1771038052490611200,3.243611083984375,8.362500190734863,15.075000762939453,43.35000228881836
1771038052500611000,3.253611083984375,9.375,14.737500190734863,42.95625305175781
1771038052510611200,3.263611083984375,10.237500190734863,14.550000190734863,42.58125305175781
1771038052520611000,3.273611083984375,10.912500381469727,14.456250190734863,43.33125305175781
1771038052530611200,3.283611083984375,11.362500190734863,13.856250762939453,43.48125076293945
1771038052540611000,3.293611083984375,11.100000381469727,14.175000190734863,43.59375
1771038052550611200,3.303611083984375,11.287500381469727,14.30625057220459,44.26875305175781
1771038052560611000,3.313611083984375,10.987500190734863,14.175000190734863,44.70000076293945
1771038052570611200,3.323611083984375,10.875,14.21250057220459,44.60625076293945
1771038052580611000,3.333611083984375,10.893750190734863,14.700000762939453,44.868751525878906
1771038052590611200,3.343611083984375,11.268750190734863,14.77500057220459,44.92500305175781
1771038052600611000,3.353611083984375,13.312500953674316,29.662500381469727,37.125
1771038052610611200,3.363611083984375,14.437500953674316,29.906251907348633,36.01875305175781
1771038052620611000,3.373611083984375,16.96875,29.606250762939453,35.15625
1771038052630611200,3.383611083984375,19.5,28.70625114440918,33.54375076293945
1771038052640611000,3.393611083984375,21.881250381469727,28.162500381469727,31.912500381469727
1771038052650611200,3.403611083984375,23.756250381469727,28.125001907348633,30.468751907348633
1771038052660611000,3.413611083984375,25.89375114440918,27.431251525878906,29.418750762939453
1771038052670611200,3.423611083984375,27.431251525878906,26.662500381469727,27.95625114440918
1771038052680611000,3.433611083984375,28.218751907348633,26.231250762939453,25.98750114440918
1771038052690611200,3.443611083984375,28.950000762939453,26.250001907348633,25.687501907348633
1771038052700611000,3.453611083984375,28.687501907348633,25.912500381469727,25.406251907348633
1771038052710611200,3.463611083984375,28.406251907348633,26.212501525878906,25.23750114440918
1771038052720611000,3.473611083984375,28.70625114440918,26.062501907348633,24.656251907348633
1771038052730611200,3.483611083984375,29.718751907348633,25.181251525878906,24.187501907348633
1771038052740611000,3.493611083984375,30.337501525878906,24.262500762939453,22.912500381469727
1771038052750611200,3.503611083984375,31.406251907348633,23.775001525878906,21.58125114440918
1771038052760611000,3.513611083984375,32.4375,23.26875114440918,21.01875114440918
1771038052770611200,3.523611083984375,33.39375305175781,22.293750762939453,19.631250381469727
1771038052780611000,3.533611083984375,34.837501525878906,21.5625,18.28125
1771038052790611200,3.543611083984375,36.03750228881836,20.90625,17.662500381469727
1771038052800611000,3.553611083984375,36.618751525878906,20.15625,17.100000381469727
1771038052810611200,3.563611083984375,36.67500305175781,20.006250381469727,16.59375
1771038052820611000,3.573611083984375,36.337501525878906,20.8125,17.36250114440918
1771038052830611200,3.583611083984375,35.94375228881836,20.850000381469727,18.11250114440918
1771038052840611000,3.593611083984375,35.41875076293945,21.056251525878906,17.83125114440918
1771038052850611200,3.603611083984375,35.32500076293945,21.84375,18.28125
1771038052860611000,3.613611083984375,34.91250228881836,22.275001525878906,18.693750381469727
1771038052870611200,3.623611083984375,34.3125,22.350000381469727,17.868751525878906
1771038052880611000,3.633611083984375,33.618751525878906,24.093751907348633,17.606250762939453
1771038052890611200,3.643611083984375,33.31875228881836,24.337501525878906,16.125
1771038052900611000,3.653611083984375,33.13125228881836,24.037500381469727,14.981250762939453
1771038052910611200,3.663611083984375,32.306251525878906,25.031251907348633,14.531250953674316
1771038052920611000,3.673611083984375,31.668750762939453,26.812501907348633,14.11875057220459
1771038052930611200,3.683611083984375,30.39375114440918,27.468751907348633,13.74375057220459
1771038052940611000,3.693611083984375,28.931251525878906,28.350000381469727,13.55625057220459
1771038052950611200,3.703611083984375,27.787500381469727,29.812501907348633,14.006250381469727
1771038052960611000,3.713611083984375,26.662500381469727,29.812501907348633,14.662500381469727
1771038052970611200,3.723611083984375,24.918750762939453,31.200000762939453,16.42500114440918
1771038052980611000,3.733611083984375,23.17500114440918,32.53125,17.45625114440918
1771038052990611200,3.743611083984375,21.76875114440918,33.11250305175781,18.412500381469727
1771038053000611000,3.753611083984375,20.662500381469727,33.39375305175781,18.881250381469727
1771038053010611200,3.763611083984375,19.6875,33.69375228881836,19.725000381469727
1771038053020611000,3.773611083984375,18.825000762939453,33.993751525878906,20.306251525878906
1771038053030611200,3.783611083984375,17.868751525878906,33.900001525878906,21.225000381469727
1771038053040611000,3.793611083984375,16.875,34.06875228881836,22.03125
1771038053050611200,3.803611083984375,16.068750381469727,34.25625228881836,22.96875
1771038053060611000,3.813611083984375,15.037500381469727,34.20000076293945,23.100000381469727
1771038053070611200,3.823611083984375,14.381250381469727,34.10625076293945,23.73750114440918
1771038053080611000,3.833611083984375,13.293750762939453,34.181251525878906,24.506250381469727
1771038053090611200,3.843611083984375,11.887500762939453,34.44375228881836,25.387500762939453
1771038053100611000,3.853611083984375,10.55625057220459,34.63125228881836,26.025001525878906
1771038053110611200,3.863611083984375,9.037500381469727,35.08125305175781,26.287500381469727
1771038053120611000,3.873611083984375,8.0625,35.60625076293945,25.70625114440918
1771038053130611200,3.883611083984375,6.937500476837158,35.64375305175781,25.200000762939453
1771038053140611000,3.893611083984375,5.962500095367432,35.8125,25.275001525878906
1771038053150611200,3.903611083984375,4.987500190734863,36.11250305175781,24.693750381469727
1771038053160611000,3.913611083984375,4.387500286102295,36.22500228881836,24.412500381469727
1771038053170611200,3.923611083984375,4.200000286102295,36.13125228881836,23.756250381469727
1771038053180611000,3.933611083984375,4.181250095367432,36.375,23.306251525878906
1771038053190611200,3.943611083984375,4.668750286102295,36.337501525878906,23.025001525878906
1771038053200611000,3.953611083984375,4.818750381469727,36.13125228881836,22.5
1771038053210611200,3.963611083984375,5.306250095367432,36.09375,22.33125114440918
1771038053220611000,3.973611083984375,6.168750286102295,36.13125228881836,22.59375
1771038053230611200,3.983611083984375,6.993750095367432,36.26250076293945,22.631250381469727
1771038053240611000,3.993611083984375,7.631250381469727,36.20625305175781,22.575000762939453
1771038053250611200,4.003611083984375,8.381250381469727,36.30000305175781,23.025001525878906
1771038053260611000,4.013611083984375,8.700000762939453,36.41250228881836,23.53125
1771038053270611200,4.023611083984375,8.512500762939453,36.01875305175781,23.512500762939453
1771038053280611000,4.033611083984375,8.043750762939453,35.73750305175781,24.450000762939453
1771038053290611200,4.043611083984375,7.087500095367432,35.34375,25.387500762939453
1771038053300611000,4.053611083984375,5.962500095367432,35.19375228881836,25.912500381469727
1771038053310611200,4.063611083984375,5.081250190734863,34.931251525878906,26.662500381469727
1771038053320611000,4.073611083984375,4.96875,35.04375076293945,27.712501525878906
1771038053330611200,4.083611083984375,5.53125,34.368751525878906,27.750001907348633
1771038053340611000,4.093611083984375,6.918750286102295,33.73125076293945,27.618751525878906
1771038053350611200,4.103611083984375,9.15000057220459,33.41250228881836,27.787500381469727
1771038053360611000,4.113611083984375,12.637500762939453,32.60625076293945,27.131250381469727
1771038053370611200,4.123611083984375,16.275001525878906,31.912500381469727,26.137500762939453
1771038053380611000,4.133611083984375,20.137500762939453,30.881250381469727,24.881250381469727
1771038053390611200,4.143611083984375,23.55000114440918,30.01875114440918,23.775001525878906
1771038053400611000,4.153611083984375,26.231250762939453,29.156251907348633,21.881250381469727
1771038053410611200,4.163611083984375,27.76875114440918,29.475000381469727,20.418750762939453
1771038053420611000,4.173611083984375,28.781251907348633,28.42500114440918,18.618751525878906
1771038053430611200,4.183611083984375,28.650001525878906,28.275001525878906,18.356250762939453
1771038053440611000,4.193611083984375,27.787500381469727,29.287500381469727,18.168750762939453
1771038053450611200,4.203611083984375,27.600000381469727,29.55000114440918,18.48750114440918
1771038053460611000,4.213611083984375,27.731250762939453,29.493751525878906,18.75
1771038053470611200,4.223611083984375,28.05000114440918,29.100000381469727,18.918750762939453
1771038053480611000,4.233611083984375,28.650001525878906,28.631250381469727,18.918750762939453
1771038053490611200,4.243611083984375,29.73750114440918,27.187501907348633,18.86250114440918
1771038053500611000,4.253611083984375,30.918750762939453,27.30000114440918,19.650001525878906
1771038053510611200,4.263611083984375,32.775001525878906,26.45625114440918,18.95625114440918
1771038053520611000,4.273611083984375,34.33125305175781,24.806251525878906,18.20625114440918
1771038053530611200,4.283611083984375,35.53125,24.243751525878906,17.4375
1771038053540611000,4.293611083984375,35.70000076293945,24.243751525878906,17.15625
1771038053550611200,4.303611083984375,35.53125,24.20625114440918,16.725000381469727
1771038053560611000,4.313611083984375,35.400001525878906,24.356250762939453,16.856250762939453
1771038053570611200,4.323611083984375,35.00625228881836,25.087501525878906,17.568750381469727
1771038053580611000,4.333611083984375,34.21875,25.312501907348633,18.150001525878906
1771038053590611200,4.343611083984375,33.03750228881836,26.100000381469727,18.95625114440918
1771038053600611000,4.353611083984375,31.837501525878906,27.225000381469727,20.118751525878906
1771038053610611200,4.363611083984375,30.318750381469727,27.975000381469727,20.943750381469727
1771038053620611000,4.373611083984375,29.26875114440918,28.481250762939453,21.48750114440918
1771038053630611200,4.383611083984375,28.350000381469727,29.343751907348633,22.443750381469727
1771038053640611000,4.393611083984375,27.075000762939453,29.887500762939453,23.26875114440918
1771038053650611200,4.403611083984375,25.818750381469727,30.243751525878906,23.325000762939453
1771038053660611000,4.413611083984375,24.58125114440918,30.95625114440918,23.662500381469727
1771038053670611200,4.423611083984375,23.34375,31.443750381469727,24.150001525878906
1771038053680611000,4.433611083984375,22.21875,32.38125228881836,24.281251907348633
1771038053690611200,4.443611083984375,20.83125114440918,32.83125305175781,24.806251525878906
1771038053700611000,4.453611083984375,19.181251525878906,33.31875228881836,25.462501525878906
1771038053710611200,4.463611083984375,17.4375,33.76875305175781,25.931251525878906
1771038053720611000,4.473611083984375,15.468750953674316,34.20000076293945,26.55000114440918
1771038053730611200,4.483611083984375,13.725000381469727,34.61250305175781,27.731250762939453
1771038053740611000,4.493611083984375,12.33750057220459,34.6875,28.743751525878906
1771038053750611200,4.503611083984375,10.706250190734863,34.96875,29.36250114440918
1771038053760611000,4.513611083984375,9.450000762939453,35.15625,29.906251907348633
1771038053770611200,4.523611083984375,7.668750286102295,34.91250228881836,30.543750762939453
1771038053780611000,4.533611083984375,5.737500190734863,34.89375305175781,30.731250762939453
1771038053790611200,4.543611083984375,4.425000190734863,34.61250305175781,30.712501525878906
1771038053800611000,4.553611083984375,2.9250001907348633,34.650001525878906,31.05000114440918
1771038053810611200,4.563611083984375,0.8812500238418579,34.59375,30.918750762939453
1771038053820611000,4.573611083984375,-1.0875000953674316,34.95000076293945,30.20625114440918
1771038053830611200,4.583611083984375,-2.7750000953674316,35.08125305175781,29.625001907348633
1771038053840611000,4.593611083984375,-4.350000381469727,34.931251525878906,28.875001907348633
1771038053850611200,4.603611083984375,-5.193750381469727,34.89375305175781,27.86250114440918
1771038053860611000,4.613611083984375,-5.943750381469727,34.837501525878906,27.281251907348633
1771038053870611200,4.623611083984375,-6.900000095367432,34.875,27.225000381469727
1771038053880611000,4.633611083984375,-7.275000095367432,34.66875076293945,26.850000381469727
1771038053890611200,4.643611083984375,-7.293750286102295,34.57500076293945,26.718751907348633
1771038053900611000,4.653611083984375,-7.350000381469727,34.38750076293945,27.168750762939453
1771038053910611200,4.663611083984375,-6.975000381469727,33.95625305175781,27.76875114440918
1771038053920611000,4.673611083984375,-6.525000095367432,33.88125228881836,28.61250114440918
1771038053930611200,4.683611083984375,-6.187500476837158,33.712501525878906,30.01875114440918
1771038053940611000,4.693611083984375,-5.418750286102295,33.22500228881836,31.500001907348633
1771038053950611200,4.703611083984375,-5.306250095367432,32.962501525878906,32.587501525878906
1771038053960611000,4.713611083984375,-5.268750190734863,32.55000305175781,33.618751525878906
1771038053970611200,4.723611083984375,-5.625,31.912500381469727,34.125
1771038053980611000,4.733611083984375,-5.831250190734863,31.068750381469727,34.53750228881836
1771038053990611200,4.743611083984375,-6.056250095367432,30.525001525878906,34.95000076293945
1771038054000611000,4.753611083984375,-5.831250190734863,30.056251525878906,35.400001525878906
1771038054010611200,4.763611083984375,-5.306250095367432,29.868751525878906,35.28750228881836
1771038054020611000,4.773611083984375,-4.387500286102295,29.887500762939453,34.743751525878906
1771038054030611200,4.783611083984375,-2.5500001907348633,30.037500381469727,34.25625228881836
1771038054040611000,4.793611083984375,-0.09375,30.412500381469727,33.35625076293945
1771038054050611200,4.803611083984375,3.356250047683716,30.918750762939453,32.775001525878906
1771038054060611000,4.813611083984375,6.881250381469727,31.23750114440918,31.51875114440918
1771038054070611200,4.823611083984375,10.143750190734863,31.687501907348633,30.150001525878906
1771038054080611000,4.833611083984375,13.55625057220459,31.837501525878906,28.537500381469727
1771038054090611200,4.843611083984375,16.462501525878906,31.968751907348633,26.793750762939453
1771038054100611000,4.853611083984375,18.525001525878906,32.51250076293945,25.275001525878906
1771038054110611200,4.863611083984375,19.931251525878906,32.94375228881836,23.775001525878906
1771038054120611000,4.873611083984375,20.850000381469727,32.962501525878906,22.256250381469727
1771038054130611200,4.883611083984375,21.225000381469727,33.31875228881836,20.793750762939453
1771038054140611000,4.893611083984375,21.76875114440918,33.82500076293945,20.25
1771038054150611200,4.903611083984375,22.837501525878906,33.76875305175781,19.462501525878906
1771038054160611000,4.913611083984375,23.475000381469727,33.39375305175781,18.712501525878906
1771038054170611200,4.923611083984375,24.225000381469727,33.45000076293945,18.30000114440918
1771038054180611000,4.933611083984375,25.218751907348633,33.01875305175781,17.8125
1771038054190611200,4.943611083984375,26.718751907348633,32.118751525878906,17.700000762939453
1771038054200611000,4.953611083984375,28.200000762939453,31.51875114440918,17.83125114440918
1771038054210611200,4.963611083984375,29.662500381469727,30.825000762939453,18.375
1771038054220611000,4.973611083984375,30.693750381469727,30.281251907348633,19.03125
1771038054230611200,4.983611083984375,30.825000762939453,29.887500762939453,19.350000381469727
1771038054240611000,4.993611083984375,30.58125114440918,30.11250114440918,19.89375114440918
1771038054250611200,5.003611083984375,30.056251525878906,30.11250114440918,20.587501525878906
1771038054260611000,5.013611083984375,29.606250762939453,30.337501525878906,21.1875
1771038054270611200,5.023611083984375,28.762500762939453,31.012500762939453,21.67500114440918
1771038054280611000,5.033611083984375,28.106250762939453,31.42500114440918,22.181251525878906
1771038054290611200,5.043611083984375,27.262500762939453,31.725000381469727,22.350000381469727
1771038054300611000,5.053611083984375,26.437501907348633,32.55000305175781,22.59375
1771038054310611200,5.063611083984375,26.025001525878906,32.66250228881836,22.05000114440918
1771038054320611000,5.073611083984375,25.70625114440918,32.23125076293945,22.70625114440918
1771038054330611200,5.083611083984375,24.843751907348633,32.587501525878906,23.493751525878906
1771038054340611000,5.093611083984375,23.53125,32.775001525878906,24.281251907348633
1771038054350611200,5.103611083984375,22.912500381469727,33.16875076293945,24.656251907348633
1771038054360611000,5.113611083984375,21.67500114440918,33.13125228881836,25.200000762939453
1771038054370611200,5.123611083984375,20.306251525878906,33.75,26.043750762939453
1771038054380611000,5.133611083984375,18.731250762939453,33.39375305175781,26.025001525878906
1771038054390611200,5.143611083984375,16.70625114440918,34.16250228881836,27.48750114440918
1771038054400611000,5.153611083984375,14.362500190734863,35.28750228881836,27.618751525878906
1771038054410611200,5.163611083984375,12.787500381469727,35.70000076293945,27.20625114440918
1771038054420611000,5.173611083984375,11.40000057220459,36.16875076293945,27.262500762939453
1771038054430611200,5.183611083984375,9.543750762939453,35.98125076293945,27.11250114440918
1771038054440611000,5.193611083984375,8.21250057220459,37.53750228881836,27.337501525878906
1771038054450611200,5.203611083984375,6.918750286102295,37.03125,27.375001907348633
1771038054460611000,5.213611083984375,5.34375,37.368751525878906,28.200000762939453
1771038054470611200,5.223611083984375,4.087500095367432,36.76875305175781,28.106250762939453
1771038054480611000,5.233611083984375,3.168750047683716,36.525001525878906,28.087501525878906
1771038054490611200,5.243611083984375,2.2875001430511475,35.66250228881836,28.068750381469727
1771038054500611000,5.253611083984375,0.768750011920929,35.60625076293945,28.462501525878906
1771038054510611200,5.263611083984375,-0.5062500238418579,34.95000076293945,28.181251525878906
1771038054520611000,5.273611083984375,-2.0062501430511475,34.51875305175781,27.337501525878906
1771038054530611200,5.283611083984375,-3.731250047683716,34.368751525878906,26.606250762939453
1771038054540611000,5.293611083984375,-5.15625,34.35000228881836,25.650001525878906
1771038054550611200,5.303611083984375,-6.506250381469727,34.556251525878906,24.937501907348633
1771038054560611000,5.313611083984375,-7.743750095367432,34.70625305175781,24.637500762939453
1771038054570611200,5.323611083984375,-9.28125,34.95000076293945,24.450000762939453
1771038054580611000,5.333611083984375,-9.99375057220459,34.5,23.8125
1771038054590611200,5.343611083984375,-11.0625,34.81875228881836,24.375001907348633
1771038054600611000,5.353611083984375,-11.86875057220459,34.650001525878906,24.48750114440918
1771038054610611200,5.363611083984375,-11.96250057220459,34.556251525878906,24.95625114440918
1771038054620611000,5.373611083984375,-11.96250057220459,34.33125305175781,24.881250381469727
1771038054630611200,5.383611083984375,-11.71875,34.181251525878906,25.51875114440918
1771038054640611000,5.393611083984375,-11.643750190734863,33.9375,25.725000381469727
1771038054650611200,5.403611083984375,-10.987500190734863,33.618751525878906,26.493751525878906
1771038054660611000,5.413611083984375,-10.200000762939453,33.28125,26.962501525878906
1771038054670611200,5.423611083984375,-9.5625,32.962501525878906,27.356250762939453
1771038054680611000,5.433611083984375,-9.412500381469727,33.20625305175781,28.14375114440918
1771038054690611200,5.443611083984375,-9.71250057220459,32.92500305175781,29.418750762939453
1771038054700611000,5.453611083984375,-10.162500381469727,32.34375,30.543750762939453
1771038054710611200,5.463611083984375,-11.0625,31.931251525878906,31.837501525878906
1771038054720611000,5.473611083984375,-11.850000381469727,31.200000762939453,32.88750076293945
1771038054730611200,5.483611083984375,-12,31.05000114440918,33.95625305175781
1771038054740611000,5.493611083984375,-11.90625,30.881250381469727,35.400001525878906
1771038054750611200,5.503611083984375,-10.800000190734863,30.750001907348633,36.712501525878906
1771038054760611000,5.513611083984375,-9.09375,30.95625114440918,37.38750076293945
1771038054770611200,5.523611083984375,-6.450000286102295,31.312501907348633,37.57500076293945
1771038054780611000,5.533611083984375,-3.2437500953674316,31.912500381469727,37.95000076293945
1771038054790611200,5.543611083984375,0.5625,32.45625305175781,37.40625
1771038054800611000,5.553611083984375,4.856250286102295,33.150001525878906,37.20000076293945
1771038054810611200,5.563611083984375,8.175000190734863,33.60000228881836,36.11250305175781
1771038054820611000,5.573611083984375,11.193750381469727,34.368751525878906,35.04375076293945
1771038054830611200,5.583611083984375,13.162500381469727,34.931251525878906,33.76875305175781
1771038054840611000,5.593611083984375,14.456250190734863,34.95000076293945,32.10000228881836
1771038054850611200,5.603611083984375,14.625000953674316,35.118751525878906,31.725000381469727
1771038054870611200,5.623611083984375,14.831250190734863,36.86250305175781,29.418750762939453
1771038054880611000,5.633611083984375,15.956250190734863,36.69375228881836,27.168750762939453
1771038054890611200,5.643611083984375,17.025001525878906,36.69375228881836,25.912500381469727
1771038054900611000,5.653611083984375,17.943750381469727,36.63750076293945,24.543750762939453
1771038054910611200,5.663611083984375,19.293750762939453,36.48750305175781,23.325000762939453
1771038054920611000,5.673611083984375,20.775001525878906,36.525001525878906,22.912500381469727
1771038054930611200,5.683611083984375,22.931251525878906,35.92500305175781,21.375
1771038054940611000,5.693611083984375,25.23750114440918,34.23750305175781,20.512500762939453
1771038054950611200,5.703611083984375,26.662500381469727,33.39375305175781,20.8125
1771038054960611000,5.713611083984375,26.662500381469727,33.07500076293945,21.825000762939453
1771038054970611200,5.723611083984375,26.73750114440918,32.868751525878906,22.181251525878906
1771038054980611000,5.733611083984375,26.587501525878906,32.47500228881836,22.743751525878906
1771038054990611200,5.743611083984375,26.306251525878906,32.306251525878906,22.912500381469727
1771038055000611000,5.753611083984375,26.100000381469727,31.98750114440918,23.025001525878906
1771038055010611200,5.763611083984375,25.650001525878906,32.4375,23.26875114440918
1771038055020611000,5.773611083984375,24.975000381469727,32.681251525878906,23.700000762939453
1771038055030611200,5.783611083984375,24.243751525878906,33,23.625
1771038055040611000,5.793611083984375,23.8125,33.28125,23.943750381469727
1771038055050611200,5.803611083984375,23.34375,33.65625,24.075000762939453
1771038055060611000,5.813611083984375,22.59375,33.78750228881836,24.093751907348633
1771038055070611200,5.823611083984375,21.75,33.97500228881836,24.337501525878906
1771038055080611000,5.833611083984375,20.868751525878906,34.48125076293945,24.900001525878906
1771038055090611200,5.843611083984375,19.6875,34.59375,25.181251525878906
1771038055100611000,5.853611083984375,18.262500762939453,34.95000076293945,25.387500762939453
1771038055110611200,5.863611083984375,16.42500114440918,35.08125305175781,25.98750114440918
1771038055120611000,5.873611083984375,14.250000953674316,35.41875076293945,26.306251525878906
1771038055130611200,5.883611083984375,12.05625057220459,35.71875,27.056251525878906
1771038055140611000,5.893611083984375,10.143750190734863,35.8125,27.318750381469727
1771038055150611200,5.903611083984375,8.287500381469727,35.92500305175781,27.993751525878906
1771038055160611000,5.913611083984375,6.375000476837158,36.375,28.162500381469727
1771038055170611200,5.923611083984375,4.856250286102295,36.31875228881836,28.725000381469727
1771038055180611000,5.933611083984375,3.543750047683716,35.8125,29.17500114440918
1771038055190611200,5.943611083984375,2.418750047683716,35.587501525878906,29.906251907348633
1771038055200611000,5.953611083984375,1.2750000953674316,35.36250305175781,30.900001525878906
1771038055210611200,5.963611083984375,0.13125000894069672,34.63125228881836,31.500001907348633
1771038055220611000,5.973611083984375,-1.4625000953674316,34.181251525878906,32.23125076293945
1771038055230611200,5.983611083984375,-3.075000047683716,33.67500305175781,32.23125076293945
1771038055240611000,5.993611083984375,-5.25,33.16875076293945,31.781251907348633
1771038055250611200,6.003611083984375,-7.125000476837158,32.73750305175781,31.293750762939453
1771038055260611000,6.013611083984375,-8.981250762939453,32.66250228881836,30.712501525878906
1771038055270611200,6.023611083984375,-10.950000762939453,32.38125228881836,29.55000114440918
1771038055280611000,6.033611083984375,-12.656250953674316,32.19375228881836,28.350000381469727
1771038055290611200,6.043611083984375,-14.381250381469727,32.13750076293945,27.243751525878906
1771038055300611000,6.053611083984375,-15.112500190734863,32.15625,26.250001907348633
1771038055310611200,6.063611083984375,-15.843750953674316,32.306251525878906,25.968751907348633
1771038055320611000,6.073611083984375,-16.03125,32.51250076293945,26.006250381469727
1771038055330611200,6.083611083984375,-16.350000381469727,32.4375,26.156251907348633
1771038055340611000,6.093611083984375,-16.387500762939453,32.306251525878906,26.418750762939453
1771038055350611200,6.103611083984375,-16.05000114440918,32.17500305175781,27.562501907348633
1771038055360611000,6.113611083984375,-15.637500762939453,32.08125305175781,28.33125114440918
1771038055370611200,6.123611083984375,-14.887500762939453,32.212501525878906,29.606250762939453
1771038055380611000,6.133611083984375,-14.175000190734863,32.00625228881836,30.543750762939453
1771038055390611200,6.143611083984375,-13.312500953674316,31.743751525878906,31.556251525878906
1771038055400611000,6.153611083984375,-12.375000953674316,31.106250762939453,32.400001525878906
1771038055410611200,6.163611083984375,-12,30.600000381469727,33.91875076293945
1771038055420611000,6.173611083984375,-12,29.887500762939453,34.72500228881836
1771038055430611200,6.183611083984375,-12.093750953674316,29.45625114440918,35.493751525878906
1771038055440611000,6.193611083984375,-12.318750381469727,28.875001907348633,36.31875228881836
1771038055450611200,6.203611083984375,-12.112500190734863,28.293750762939453,36.9375
1771038055460611000,6.213611083984375,-11.68125057220459,27.712501525878906,37.556251525878906
1771038055470611200,6.223611083984375,-10.93125057220459,27.618751525878906,38.56875228881836
1771038055480611000,6.233611083984375,-9.75,27.86250114440918,39
1771038055490611200,6.243611083984375,-7.500000476837158,28.556251525878906,39.20625305175781
1771038055500611000,6.253611083984375,-4.537500381469727,29.025001525878906,39.58125305175781
1771038055510611200,6.263611083984375,-1.0875000953674316,29.868751525878906,39.337501525878906
1771038055520611000,6.273611083984375,2.8312501907348633,30.431251525878906,38.41875076293945
1771038055530611200,6.283611083984375,6.431250095367432,31.256250381469727,37.21875
1771038055540611000,6.293611083984375,9.75,31.98750114440918,35.92500305175781
1771038055550611200,6.303611083984375,12.80625057220459,32.28750228881836,33.45000076293945
1771038055560611000,6.313611083984375,14.49375057220459,32.92500305175781,31.781251907348633
1771038055570611200,6.323611083984375,15.487500190734863,33.39375305175781,29.587501525878906
1771038055580611000,6.333611083984375,15.52500057220459,34.44375228881836,27.750001907348633
1771038055590611200,6.343611083984375,15.562500953674316,35.36250305175781,25.762500762939453
1771038055600611000,6.353611083984375,15.918750762939453,36.01875305175781,24.543750762939453
1771038055610611200,6.363611083984375,16.293750762939453,36.58125305175781,23.26875114440918
1771038055620611000,6.373611083984375,16.537500381469727,37.16250228881836,22.350000381469727
1771038055630611200,6.383611083984375,16.818750381469727,37.72500228881836,21.75
1771038055640611000,6.393611083984375,18.075000762939453,37.6875,21.731250762939453
1771038055650611200,6.403611083984375,19.443750381469727,37.66875076293945,21.84375
1771038055660611000,6.413611083984375,21.262500762939453,37.20000076293945,22.6875
1771038055670611200,6.423611083984375,22.70625114440918,36.150001525878906,23.231250762939453
1771038055680611000,6.433611083984375,23.418750762939453,35.66250228881836,24.468751907348633
1771038055690611200,6.443611083984375,23.625,34.95000076293945,25.350000381469727
1771038055700611000,6.453611083984375,23.700000762939453,34.931251525878906,26.906251907348633
1771038055710611200,6.463611083984375,23.36250114440918,35.04375076293945,28.368751525878906
1771038055720611000,6.473611083984375,23.006250381469727,34.85625076293945,28.875001907348633
1771038055730611200,6.483611083984375,22.59375,34.875,28.762500762939453
1771038055740611000,6.493611083984375,22.275001525878906,34.05000305175781,28.725000381469727
1771038055750611200,6.503611083984375,21.30000114440918,34.6875,30.431251525878906
1771038055760611000,6.513611083984375,20.26875114440918,35.64375305175781,30.712501525878906
1771038055770611200,6.523611083984375,19.78125,36.13125228881836,31.406251907348633
1771038055780611000,6.533611083984375,19.181251525878906,36,30.937501907348633
1771038055790611200,6.543611083984375,18.48750114440918,35.681251525878906,31.106250762939453
1771038055800611000,6.553611083984375,17.287500381469727,36.20625305175781,31.481250762939453
1771038055810611200,6.563611083984375,16.106250762939453,35.94375228881836,32.75625228881836
1771038055820611000,6.573611083984375,14.362500190734863,37.01250076293945,33.20625305175781
1771038055830611200,6.583611083984375,12.750000953674316,36.73125076293945,32.88750076293945
1771038055840611000,6.593611083984375,11.175000190734863,36.16875076293945,32.94375228881836
1771038055850611200,6.603611083984375,9,36.11250305175781,32.71875
1771038055860611000,6.613611083984375,6.956250190734863,36.16875076293945,33.243751525878906
1771038055870611200,6.623611083984375,4.931250095367432,36.50625228881836,33.54375076293945
1771038055880611000,6.633611083984375,3.093750238418579,36.03750228881836,33.58125305175781
1771038055890611200,6.643611083984375,1.7437500953674316,36.22500228881836,33.26250076293945
1771038055900611000,6.653611083984375,0.5625,35.92500305175781,33.712501525878906
1771038055910611200,6.663611083984375,-0.03750000149011612,35.55000305175781,33.22500228881836
1771038055920611000,6.673611083984375,-1.5750000476837158,35.53125,33.1875
1771038055930611200,6.683611083984375,-2.5687501430511475,35.04375076293945,33.41250228881836
1771038055940611000,6.693611083984375,-3.656250238418579,34.650001525878906,33.76875305175781
1771038055950611200,6.703611083984375,-4.387500286102295,33.97500228881836,33.69375228881836
1771038055960611000,6.713611083984375,-5.493750095367432,33.65625,33.9375
1771038055970611200,6.723611083984375,-7.256250381469727,33.26250076293945,33.900001525878906
1771038055980611000,6.733611083984375,-8.925000190734863,32.92500305175781,33.28125
1771038055990611200,6.743611083984375,-10.668750762939453,32.868751525878906,33.13125228881836
1771038056000611000,6.753611083984375,-12.281250953674316,32.775001525878906,32.85000228881836
1771038056010611200,6.763611083984375,-13.500000953674316,32.56875228881836,32.38125228881836
1771038056020611000,6.773611083984375,-14.475000381469727,32.587501525878906,31.61250114440918
1771038056030611200,6.783611083984375,-15.225000381469727,32.41875076293945,30.825000762939453
1771038056040611000,6.793611083984375,-15.52500057220459,32.34375,30.525001525878906
1771038056050611200,6.803611083984375,-15.768750190734863,32.26875305175781,30.281251907348633
1771038056060611000,6.813611083984375,-15.637500762939453,32.4375,30.525001525878906
1771038056070611200,6.823611083984375,-15.581250190734863,32.08125305175781,30.506250381469727
1771038056080611000,6.833611083984375,-15.318750381469727,31.762500762939453,30.48750114440918
1771038056090611200,6.843611083984375,-14.96250057220459,31.762500762939453,30.618751525878906
1771038056100611000,6.853611083984375,-14.718750953674316,31.42500114440918,31.387500762939453
1771038056110611200,6.863611083984375,-14.193750381469727,31.481250762939453,32.75625228881836
1771038056120611000,6.873611083984375,-13.631250381469727,31.218751907348633,33.5625
1771038056130611200,6.883611083984375,-13.125000953674316,30.58125114440918,34.53750228881836
1771038056140611000,6.893611083984375,-13.425000190734863,29.981250762939453,35.118751525878906
1771038056150611200,6.903611083984375,-13.762500762939453,29.718751907348633,35.92500305175781
1771038056160611000,6.913611083984375,-14.268750190734863,29.418750762939453,36.95625305175781
1771038056170611200,6.923611083984375,-14.531250953674316,28.837501525878906,38.23125076293945
1771038056180611000,6.933611083984375,-14.325000762939453,28.387500762939453,39.28125
1771038056190611200,6.943611083984375,-13.818750381469727,27.787500381469727,39.88125228881836
1771038056200611000,6.953611083984375,-12.412500381469727,27.750001907348633,40.33125305175781
1771038056210611200,6.963611083984375,-9.9375,28.23750114440918,40.743751525878906
1771038056220611000,6.973611083984375,-6.150000095367432,28.537500381469727,41.23125076293945
1771038056230611200,6.983611083984375,-2.1937501430511475,29.118751525878906,41.10000228881836
1771038056240611000,6.993611083984375,2.4562501907348633,29.64375114440918,40.48125076293945
1771038056250611200,7.003611083984375,6.900000095367432,30.30000114440918,39.76875305175781
1771038056260611000,7.013611083984375,10.875,31.162500381469727,38.212501525878906
1771038056270611200,7.023611083984375,13.800000190734863,31.743751525878906,37.556251525878906
1771038056280611000,7.033611083984375,15.018750190734863,33.67500305175781,37.06875228881836
1771038056290611200,7.043611083984375,15.768750190734863,34.59375,35.212501525878906
1771038056300611000,7.053611083984375,15.71250057220459,35.212501525878906,33.618751525878906
1771038056310611200,7.063611083984375,15.543750762939453,35.75625228881836,32.587501525878906
1771038056320611000,7.073611083984375,15.581250190734863,36.46875,31.312501907348633
1771038056330611200,7.083611083984375,15.918750762939453,36.993751525878906,29.475000381469727
1771038056340611000,7.093611083984375,16.59375,37.10625076293945,28.443750381469727
1771038056350611200,7.103611083984375,17.34375,37.743751525878906,26.606250762939453
1771038056360611000,7.113611083984375,18.9375,36.712501525878906,25.218751907348633
1771038056370611200,7.123611083984375,20.381250381469727,36.337501525878906,24.881250381469727
1771038056380611000,7.133611083984375,22.14375114440918,36.28125,24.39375114440918
1771038056390611200,7.143611083984375,23.775001525878906,35.868751525878906,24.168750762939453
1771038056400611000,7.153611083984375,24.543750762939453,35.47500228881836,23.756250381469727
1771038056410611200,7.163611083984375,24.750001907348633,35.306251525878906,24.825000762939453
1771038056420611000,7.173611083984375,24.58125114440918,35.38125228881836,24.731250762939453
1771038056430611200,7.183611083984375,24.543750762939453,35.15625,25.162500381469727
1771038056440611000,7.193611083984375,24.600000381469727,35.15625,24.86250114440918
1771038056450611200,7.203611083984375,24.450000762939453,35.32500076293945,24.993751525878906
1771038056460611000,7.213611083984375,24.037500381469727,35.400001525878906,24.337501525878906
1771038056470611200,7.223611083984375,23.700000762939453,35.75625228881836,23.681251525878906
1771038056480611000,7.233611083984375,23.325000762939453,35.83125305175781,23.53125
1771038056490611200,7.243611083984375,23.043750762939453,36.45000076293945,22.762500762939453
1771038056500611000,7.253611083984375,22.631250381469727,36.54375076293945,22.537500381469727
1771038056510611200,7.263611083984375,22.106250762939453,36.82500076293945,22.181251525878906
1771038056520611000,7.273611083984375,21.225000381469727,37.462501525878906,22.33125114440918
1771038056530611200,7.283611083984375,20.418750762939453,37.556251525878906,22.05000114440918
1771038056540611000,7.293611083984375,19.200000762939453,37.837501525878906,22.59375
1771038056550611200,7.303611083984375,17.475000381469727,38.17500305175781,23.26875114440918
1771038056560611000,7.313611083984375,15.450000762939453,38.71875,23.887500762939453
1771038056570611200,7.323611083984375,13.350000381469727,38.64375305175781,24.30000114440918
1771038056580611000,7.333611083984375,11.34375,39.056251525878906,25.05000114440918
1771038056590611200,7.343611083984375,9.375,39.28125,25.406251907348633
1771038056600611000,7.353611083984375,7.818750381469727,39.20625305175781,26.156251907348633
1771038056610611200,7.363611083984375,6.262500286102295,39.28125,26.812501907348633
1771038056620611000,7.373611083984375,4.96875,39.525001525878906,28.012500762939453
1771038056630611200,7.383611083984375,4.368750095367432,39.1875,28.781251907348633
1771038056640611000,7.393611083984375,3.918750047683716,38.75625228881836,29.418750762939453
1771038056660611000,7.413611083984375,3.075000047683716,37.78125,30.431251525878906
1771038056670611200,7.423611083984375,2.5500001907348633,37.556251525878906,30.618751525878906
1771038056680611000,7.433611083984375,0.675000011920929,36.69375228881836,29.681251525878906
1771038056690611200,7.443611083984375,-1.2937500476837158,36.65625,29.493751525878906
1771038056700611000,7.453611083984375,-3.168750047683716,36.243751525878906,28.537500381469727
1771038056710611200,7.463611083984375,-5.550000190734863,35.98125076293945,27.656251907348633
1771038056720611000,7.473611083984375,-7.968750476837158,36.13125228881836,27.150001525878906
1771038056730611200,7.483611083984375,-10.256250381469727,36.03750228881836,26.587501525878906
1771038056740611000,7.493611083984375,-12.43125057220459,35.98125076293945,25.931251525878906
1771038056750611200,7.503611083984375,-14.625000953674316,35.90625,25.875001907348633
1771038056760611000,7.513611083984375,-16.068750381469727,35.47500228881836,25.912500381469727
1771038056770611200,7.523611083984375,-16.78125,35.13750076293945,26.26875114440918
1771038056780611000,7.533611083984375,-17.08125114440918,34.81875228881836,26.512500762939453
1771038056790611200,7.543611083984375,-17.287500381469727,34.81875228881836,26.962501525878906
1771038056800611000,7.553611083984375,-16.875,34.33125305175781,26.943750381469727
1771038056810611200,7.563611083984375,-16.725000381469727,34.44375228881836,27.67500114440918
1771038056820611000,7.573611083984375,-16.256250381469727,34.10625076293945,28.70625114440918
1771038056830611200,7.583611083984375,-15.356250762939453,33.97500228881836,29.92500114440918
1771038056840611000,7.593611083984375,-14.718750953674316,33.63750076293945,31.312501907348633
1771038056850611200,7.603611083984375,-13.856250762939453,33.39375305175781,32.34375
1771038056860611000,7.613611083984375,-13.425000190734863,32.64375305175781,33.375
1771038056870611200,7.623611083984375,-12.90000057220459,32.60625076293945,34.29375076293945
1771038056880611000,7.633611083984375,-12.862500190734863,32.118751525878906,35.28750228881836
1771038056890611200,7.643611083984375,-12.731250762939453,31.70625114440918,36.03750228881836
1771038056900611000,7.653611083984375,-12.225000381469727,31.443750381469727,37.3125
1771038056910611200,7.663611083984375,-11.793750762939453,31.087501525878906,37.743751525878906
1771038056920611000,7.673611083984375,-10.387500762939453,31.106250762939453,38.4375
1771038056930611200,7.683611083984375,-8.643750190734863,31.162500381469727,38.587501525878906
1771038056940611000,7.693611083984375,-6.206250190734863,31.762500762939453,39.1875
1771038056950611200,7.703611083984375,-3.0375001430511475,31.837501525878906,39.09375
1771038056960611000,7.713611083984375,0.9375000596046448,32.493751525878906,39.20625305175781
1771038056970611200,7.723611083984375,5.212500095367432,32.625,38.00625228881836
1771038056980611000,7.733611083984375,9.075000762939453,33.22500228881836,36.9375
1771038056990611200,7.743611083984375,12.881250381469727,33.35625076293945,35.41875076293945
1771038057000611000,7.753611083984375,15.318750381469727,33.993751525878906,34.087501525878906
1771038057010611200,7.763611083984375,16.80000114440918,34.25625228881836,32.32500076293945
1771038057020611000,7.773611083984375,17.587501525878906,35.23125076293945,30.48750114440918
1771038057030611200,7.783611083984375,17.53125,35.71875,28.856250762939453
1771038057040611000,7.793611083984375,17.043750762939453,36.54375076293945,27.48750114440918
1771038057050611200,7.803611083984375,16.481250762939453,37.125,26.08125114440918
1771038057060611000,7.813611083984375,15.843750953674316,37.91250228881836,24.30000114440918
1771038057070611200,7.823611083984375,15.600000381469727,38.34375,23.231250762939453
1771038057080611000,7.833611083984375,15.80625057220459,38.70000076293945,22.068750381469727
1771038057090611200,7.843611083984375,16.78125,38.51250076293945,21.806251525878906
1771038057100611000,7.853611083984375,17.681251525878906,38.17500305175781,21.39375114440918
1771038057110611200,7.863611083984375,19.275001525878906,37.875,21.375
1771038057120611000,7.873611083984375,20.700000762939453,37.3125,21.20625114440918
1771038057130611200,7.883611083984375,21.900001525878906,36.41250228881836,21.637500762939453
1771038057140611000,7.893611083984375,22.537500381469727,35.90625,22.387500762939453
1771038057150611200,7.903611083984375,22.725000381469727,35.400001525878906,23.043750762939453
1771038057160611000,7.913611083984375,22.537500381469727,35.34375,23.71875
1771038057170611200,7.923611083984375,21.600000381469727,36.22500228881836,25.312501907348633
1771038057180611000,7.933611083984375,20.981250762939453,37.05000305175781,25.856250762939453
1771038057190611200,7.943611083984375,20.212501525878906,37.087501525878906,25.931251525878906
1771038057200611000,7.953611083984375,19.21875,37.03125,26.36250114440918
1771038057210611200,7.963611083984375,18.450000762939453,37.650001525878906,27.225000381469727
1771038057220611000,7.973611083984375,17.943750381469727,37.78125,27.562501907348633
1771038057230611200,7.983611083984375,17.287500381469727,38.19375228881836,28.106250762939453
1771038057240611000,7.993611083984375,16.556251525878906,38.10000228881836,28.406251907348633
1771038057250611200,8.003611083984374,16.23750114440918,37.368751525878906,27.806251525878906
1771038057260611000,8.013611083984374,15.637500762939453,36.84375,28.500001907348633
1771038057270611200,8.023611083984376,14.362500190734863,36.900001525878906,29.231250762939453
1771038057280611000,8.033611083984376,13.050000190734863,36.84375,29.493751525878906
1771038057290611200,8.043611083984375,11.4375,36.900001525878906,28.856250762939453
1771038057300611000,8.053611083984375,9.71250057220459,36.88125228881836,29.100000381469727
1771038057310611200,8.063611083984375,8.02500057220459,36.75,28.80000114440918
1771038057320611000,8.073611083984375,6.150000095367432,36.54375076293945,28.387500762939453
1771038057330611200,8.083611083984374,4.087500095367432,36.35625076293945,27.618751525878906
1771038057340611000,8.093611083984374,2.1187500953674316,35.868751525878906,26.400001525878906
1771038057350611200,8.103611083984376,0.8812500238418579,35.66250228881836,25.087501525878906
1771038057360611000,8.113611083984376,-0.20625001192092896,35.36250305175781,24.187501907348633
1771038057370611200,8.123611083984375,-1.5937501192092896,35.10000228881836,24.95625114440918
1771038057380611000,8.133611083984375,-2.981250047683716,34.61250305175781,24.712501525878906
1771038057390611200,8.143611083984375,-5.362500190734863,34.38750076293945,25.031251907348633
1771038057400611000,8.153611083984375,-7.087500095367432,33.78750228881836,25.33125114440918
1771038057410611200,8.163611083984375,-8.943750381469727,33.5625,25.837501525878906
1771038057420611000,8.173611083984374,-10.96875,33.41250228881836,26.100000381469727
1771038057430611200,8.183611083984376,-13.237500190734863,32.92500305175781,26.981250762939453
1771038057440611000,8.193611083984376,-15.581250190734863,32.73750305175781,27.168750762939453
1771038057450611200,8.203611083984375,-17.587501525878906,32.493751525878906,26.64375114440918
1771038057460611000,8.213611083984375,-19.5,32.38125228881836,25.968751907348633
1771038057470611200,8.223611083984375,-20.475000381469727,32.25,25.725000381469727
1771038057480611000,8.233611083984375,-21.356250762939453,32.306251525878906,25.293750762939453
1771038057490611200,8.243611083984375,-21.75,32.55000305175781,25.500001907348633
1771038057500611000,8.253611083984374,-22.068750381469727,32.23125076293945,25.875001907348633
1771038057510611200,8.263611083984374,-22.200000762939453,32.4375,26.493751525878906
1771038057520611000,8.273611083984376,-22.106250762939453,32.47500228881836,27.075000762939453
1771038057530611200,8.283611083984376,-22.012500762939453,32.625,27.95625114440918
1771038057540611000,8.293611083984375,-21.337501525878906,32.51250076293945,29.193750381469727
1771038057550611200,8.303611083984375,-20.53125,32.8125,30.150001525878906
1771038057560611000,8.313611083984375,-19.5,33.09375,31.33125114440918
1771038057570611200,8.323611083984375,-18.46875,33.41250228881836,32.19375228881836
1771038057580611000,8.333611083984374,-17.193750381469727,33.30000305175781,33.22500228881836
1771038057590611200,8.343611083984374,-16.275001525878906,33.056251525878906,33.806251525878906
1771038057600611000,8.353611083984376,-15.787500381469727,32.8125,34.6875
1771038057610611200,8.363611083984376,-15.33750057220459,32.73750305175781,35.36250305175781
1771038057620611000,8.373611083984375,-15.093750953674316,32.66250228881836,35.962501525878906
1771038057630611200,8.383611083984375,-14.606250762939453,32.88750076293945,36.13125228881836
1771038057640611000,8.393611083984375,-13.893750190734863,32.47500228881836,36.712501525878906
1771038057650611200,8.403611083984375,-12.750000953674316,32.10000228881836,36.712501525878906
1771038057660611000,8.413611083984375,-10.856250762939453,32.587501525878906,36.39375305175781
1771038057670611200,8.423611083984374,-8.625,32.962501525878906,36.48750305175781
1771038057680611000,8.433611083984376,-5.71875,33.86250305175781,36.1875
1771038057690611200,8.443611083984376,-2.0625,34.38750076293945,35.66250228881836
1771038057700611000,8.453611083984375,1.6687500476837158,35.94375228881836,34.85625076293945
1771038057710611200,8.463611083984375,5.568750381469727,36.07500076293945,32.90625
1771038057720611000,8.473611083984375,9.356250762939453,36.03750228881836,30.600000381469727
1771038057730611200,8.483611083984375,11.8125,36.46875,29.718751907348633
1771038057740611000,8.493611083984375,13.218750953674316,36.993751525878906,28.818750381469727
1771038057750611200,8.503611083984374,14.268750190734863,37.76250076293945,27.30000114440918
1771038057760611000,8.513611083984374,14.943750381469727,37.89375305175781,26.08125114440918
1771038057770611200,8.523611083984376,15.262500762939453,38.25,24.86250114440918
1771038057780611000,8.533611083984376,16.162500381469727,37.72500228881836,23.400001525878906
1771038057790611200,8.543611083984375,16.556251525878906,37.98750305175781,23.36250114440918
1771038057800611000,8.553611083984375,16.837501525878906,38.83125305175781,22.89375114440918
1771038057810611200,8.563611083984375,17.775001525878906,38.83125305175781,21.431251525878906
1771038057820611000,8.573611083984375,19.14375114440918,38.55000305175781,20.418750762939453
1771038057830611200,8.583611083984374,20.73750114440918,38.32500076293945,20.08125114440918
1771038057840611000,8.593611083984374,22.350000381469727,38.025001525878906,19.762500762939453
1771038057850611200,8.603611083984376,23.793750762939453,37.5,19.462501525878906
1771038057860611000,8.613611083984376,24.168750762939453,37.16250228881836,19.70625114440918
1771038057870611200,8.623611083984375,24.656251907348633,36.84375,19.725000381469727
1771038057880611000,8.633611083984375,24.468751907348633,36.73125076293945,20.137500762939453
1771038057890611200,8.643611083984375,24.037500381469727,36.58125305175781,20.681251525878906
1771038057900611000,8.653611083984375,23.25,36.48750305175781,21.28125
1771038057910611200,8.663611083984375,22.387500762939453,36.48750305175781,21.28125
1771038057920611000,8.673611083984374,21.5625,36.48750305175781,21.431251525878906
1771038057930611200,8.683611083984376,20.8125,36.91875076293945,21.67500114440918
1771038057940611000,8.693611083984376,20.043750762939453,37.33125305175781,21.9375
1771038057950611200,8.703611083984375,18.95625114440918,37.29375076293945,21.993751525878906
1771038057960611000,8.713611083984375,18.243751525878906,37.44375228881836,22.481250762939453
1771038057970611200,8.723611083984375,17.793750762939453,37.80000305175781,22.950000762939453
1771038057980611000,8.733611083984375,16.96875,38.0625,23.17500114440918
1771038057990611200,8.743611083984375,15.768750190734863,38.23125076293945,23.700000762939453
1771038058000611000,8.753611083984374,14.550000190734863,38.88750076293945,24.356250762939453
1771038058010611200,8.763611083984374,12.637500762939453,39.01875305175781,24.86250114440918
1771038058020611000,8.773611083984376,10.725000381469727,39.03750228881836,25.23750114440918
1771038058030611200,8.783611083984376,9.018750190734863,39.58125305175781,26.025001525878906
1771038058040611000,8.793611083984375,6.618750095367432,39.69375228881836,26.400001525878906
1771038058050611200,8.803611083984375,4.78125,39.78750228881836,27.037500381469727
1771038058060611000,8.813611083984375,3.637500047683716,39.63750076293945,27.562501907348633
1771038058070611200,8.823611083984375,2.5687501430511475,39.375,28.275001525878906
1771038058080611000,8.833611083984374,1.3687500953674316,39.20625305175781,28.931251525878906
1771038058090611200,8.843611083984374,0.956250011920929,38.625,29.475000381469727
1771038058100611000,8.853611083984376,0.3187500238418579,38.19375228881836,30.01875114440918
1771038058110611200,8.863611083984376,-1.1437500715255737,37.51875305175781,30.48750114440918
1771038058120611000,8.873611083984375,-2.4750001430511475,36.9375,30.881250381469727
1771038058130611200,8.883611083984375,-3.8625001907348633,36.30000305175781,30.881250381469727
1771038058140611000,8.893611083984375,-6.450000286102295,35.98125076293945,31.200000762939453
1771038058150611200,8.903611083984375,-8.625,35.625,30.543750762939453
1771038058160611000,8.913611083984375,-11.100000381469727,34.837501525878906,29.793750762939453
1771038058170611200,8.923611083984374,-13.875000953674316,34.63125228881836,28.968751907348633
1771038058180611000,8.933611083984376,-16.368751525878906,34.10625076293945,28.23750114440918
1771038058190611200,8.943611083984376,-18,33.91875076293945,27.450000762939453
1771038058200611000,8.953611083984375,-20.006250381469727,33.45000076293945,26.681251525878906
1771038058210611200,8.963611083984375,-21.225000381469727,33.39375305175781,26.45625114440918
1771038058220611000,8.973611083984375,-21.58125114440918,33.375,26.17500114440918
1771038058230611200,8.983611083984375,-21.95625114440918,33.03750228881836,26.812501907348633
1771038058240611000,8.993611083984375,-21.75,32.90625,27.225000381469727
1771038058250611200,9.003611083984374,-21.58125114440918,32.70000076293945,27.937501907348633
1771038058260611000,9.013611083984374,-20.868751525878906,32.66250228881836,29.025001525878906
1771038058270611200,9.023611083984376,-19.762500762939453,32.28750228881836,30.431251525878906
1771038058280611000,9.033611083984376,-18.67500114440918,32.00625228881836,31.650001525878906
1771038058290611200,9.043611083984375,-17.8125,31.387500762939453,32.47500228881836
1771038058300611000,9.053611083984375,-16.875,30.750001907348633,33.618751525878906
1771038058310611200,9.063611083984375,-16.200000762939453,30.337501525878906,34.63125228881836
1771038058320611000,9.073611083984375,-16.181251525878906,29.943750381469727,35.64375305175781
1771038058330611200,9.083611083984374,-15.468750953674316,29.475000381469727,36.712501525878906
1771038058340611000,9.093611083984374,-15.112500190734863,29.08125114440918,37.38750076293945
1771038058350611200,9.103611083984376,-14.643750190734863,28.781251907348633,37.837501525878906
1771038058360611000,9.113611083984376,-13.83750057220459,28.818750381469727,38.34375
1771038058370611200,9.123611083984375,-12.318750381469727,29.118751525878906,38.868751525878906
1771038058380611000,9.133611083984375,-10.237500190734863,29.83125114440918,38.75625228881836
1771038058390611200,9.143611083984375,-7.912500381469727,30.787500381469727,38.625
1771038058400611000,9.153611083984375,-4.537500381469727,31.650001525878906,38.26875305175781
1771038058410611200,9.163611083984375,-1.3312500715255737,32.4375,37.33125305175781
1771038058420611000,9.173611083984374,2.2687501907348633,33.50625228881836,36.31875228881836
1771038058430611200,9.183611083984376,5.493750095367432,34.51875305175781,34.96875
1771038058440611000,9.193611083984376,8.30625057220459,35.212501525878906,33.431251525878906
1771038058450611200,9.203611083984375,10.350000381469727,35.94375228881836,32.08125305175781
1771038058460611000,9.213611083984375,11.512500762939453,36.20625305175781,30.900001525878906
1771038058470611200,9.223611083984375,12.600000381469727,36.60000228881836,29.756250381469727
1771038058480611000,9.233611083984375,13.143750190734863,36.993751525878906,28.443750381469727
1771038058490611200,9.243611083984375,13.55625057220459,37.57500076293945,27.525001525878906
1771038058500611000,9.253611083984374,13.537500381469727,37.650001525878906,26.437501907348633
1771038058510611200,9.263611083984374,13.575000762939453,37.837501525878906,25.556251525878906
1771038058520611000,9.273611083984376,13.950000762939453,38.00625228881836,24.262500762939453
1771038058530611200,9.283611083984376,14.887500762939453,38.10000228881836,23.118751525878906
1771038058540611000,9.293611083984375,16.068750381469727,38.13750076293945,22.087501525878906
1771038058550611200,9.303611083984375,17.53125,37.76250076293945,21.30000114440918
1771038058560611000,9.313611083984375,19.068750381469727,37.25625228881836,21.01875114440918
1771038058570611200,9.323611083984375,20.26875114440918,36.63750076293945,20.73750114440918
1771038058580611000,9.333611083984374,21.431251525878906,36.150001525878906,20.4375
1771038058590611200,9.343611083984374,21.993751525878906,35.73750305175781,19.556251525878906
1771038058600611000,9.353611083984376,22.33125114440918,35.8125,21
1771038058610611200,9.363611083984376,22.275001525878906,36.75,21.375
1771038058620611000,9.373611083984375,22.59375,36.60000228881836,20.73750114440918
1771038058630611200,9.383611083984375,22.42500114440918,36.60000228881836,20.625
1771038058640611000,9.393611083984375,21.243751525878906,36.900001525878906,20.850000381469727
1771038058650611200,9.403611083984375,20.55000114440918,37.181251525878906,21.1875
1771038058660611000,9.413611083984375,19.556251525878906,37.72500228881836,22.05000114440918
1771038058670611200,9.423611083984374,18.84375,38.23125076293945,23.53125
1771038058680611000,9.433611083984376,18.075000762939453,38.45625305175781,23.118751525878906
1771038058690611200,9.443611083984376,16.950000762939453,37.51875305175781,23.756250381469727
1771038058700611000,9.453611083984375,15.43125057220459,37.66875076293945,25.275001525878906
1771038058710611200,9.463611083984375,13.875000953674316,38.23125076293945,26.287500381469727
1771038058720611000,9.473611083984375,12.656250953674316,38.34375,26.718751907348633
1771038058730611200,9.483611083984375,10.65000057220459,38.85000228881836,27.39375114440918
1771038058740611000,9.493611083984375,8.756250381469727,39.03750228881836,27.656251907348633
1771038058750611200,9.503611083984374,6.618750095367432,39.16875076293945,28.200000762939453
1771038058760611000,9.513611083984374,4.443750381469727,38.85000228881836,28.500001907348633
1771038058770611200,9.523611083984376,2.6625001430511475,39,29.137500762939453
1771038058780611000,9.533611083984376,1.03125,39.056251525878906,29.73750114440918
1771038058790611200,9.543611083984375,-0.6187500357627869,38.75625228881836,29.962501525878906
1771038058800611000,9.553611083984375,-1.8750001192092896,38.15625,29.625001907348633
1771038058810611200,9.563611083984375,-2.4375,37.6875,29.718751907348633
1771038058820611000,9.573611083984375,-3.3000001907348633,37.23750305175781,29.700000762939453
1771038058830611200,9.583611083984374,-4.087500095367432,36.76875305175781,29.493751525878906
1771038058840611000,9.593611083984374,-5.362500190734863,36.60000228881836,29.718751907348633
1771038058850611200,9.603611083984376,-7.218750476837158,36,29.118751525878906
1771038058860611000,9.613611083984376,-9.225000381469727,35.75625228881836,28.350000381469727
1771038058870611200,9.623611083984375,-11.081250190734863,35.19375228881836,27.450000762939453
1771038058880611000,9.633611083984375,-13.256250381469727,35.15625,27.150001525878906
1771038058890611200,9.643611083984375,-15.731250762939453,34.85625076293945,26.36250114440918
1771038058900611000,9.653611083984375,-17.962501525878906,34.5,25.593751907348633
1771038058910611200,9.663611083984375,-19.743751525878906,34.275001525878906,24.843751907348633
1771038058920611000,9.673611083984374,-21.337501525878906,33.95625305175781,23.64375114440918
1771038058930611200,9.683611083984376,-22.106250762939453,33.88125228881836,23.287500381469727
1771038058940611000,9.693611083984376,-22.743751525878906,33.58125305175781,23.34375
1771038058950611200,9.703611083984375,-22.89375114440918,33.75,24.01875114440918
1771038058960611000,9.713611083984375,-23.006250381469727,33.45000076293945,24.562501907348633
1771038058970611200,9.723611083984375,-22.931251525878906,33.03750228881836,25.575000762939453
1771038058980611000,9.733611083984375,-22.61250114440918,32.66250228881836,26.662500381469727
1771038058990611200,9.743611083984375,-21.95625114440918,32.34375,27.993751525878906
1771038059000611000,9.753611083984374,-21,32.34375,29.381250381469727
1771038059010611200,9.763611083984374,-20.025001525878906,32.17500305175781,30.900001525878906
1771038059020611000,9.773611083984376,-18.9375,31.725000381469727,32.26875305175781
1771038059030611200,9.783611083984376,-18.731250762939453,31.068750381469727,33.07500076293945
1771038059040611000,9.793611083984375,-18.618751525878906,30.76875114440918,33.712501525878906
1771038059050611200,9.803611083984375,-18.637500762939453,30.825000762939453,34.06875228881836
1771038059060611000,9.813611083984375,-18.506250381469727,30.693750381469727,34.70625305175781
1771038059070611200,9.823611083984375,-18.58125114440918,30.58125114440918,35.118751525878906
1771038059080611000,9.833611083984374,-18.39375114440918,30.375001907348633,35.4375
1771038059090611200,9.843611083984374,-17.943750381469727,30.281251907348633,35.73750305175781
1771038059100611000,9.853611083984376,-16.931251525878906,30.600000381469727,35.92500305175781
1771038059110611200,9.863611083984376,-14.737500190734863,31.14375114440918,36.13125228881836
1771038059120611000,9.873611083984375,-11.4375,32.34375,36.67500305175781
1771038059130611200,9.883611083984375,-7.443750381469727,33.03750228881836,35.83125305175781
1771038059140611000,9.893611083984375,-3.0562500953674316,32.868751525878906,34.5
1771038059150611200,9.903611083984375,1.162500023841858,33.11250305175781,34.14375305175781
1771038059160611000,9.913611083984375,4.706250190734863,34.125,33.09375
1771038059170611200,9.923611083984374,7.612500190734863,34.98750305175781,31.968751907348633
1771038059180611000,9.933611083984376,9.506250381469727,35.83125305175781,30.450000762939453
1771038059190611200,9.943611083984376,10.74375057220459,36.60000228881836,29.250001907348633
1771038059200611000,9.953611083984375,11.11875057220459,36.65625,27.131250381469727
1771038059210611200,9.963611083984375,11.25,37.03125,26.64375114440918
1771038059220611000,9.973611083984375,11.362500190734863,38.53125,26.193750381469727
1771038059230611200,9.983611083984375,11.418750762939453,39.30000305175781,24.637500762939453
1771038059250611200,10.003611083984374,13.36875057220459,39.46875,21.975000381469727
1771038059260611000,10.013611083984374,14.68125057220459,39.243751525878906,21.037500381469727
1771038059270611200,10.023611083984376,16.368751525878906,38.75625228881836,20.137500762939453
1771038059280611000,10.033611083984376,18.450000762939453,38.25,20.043750762939453
1771038059290611200,10.043611083984375,19.98750114440918,37.72500228881836,19.70625114440918
1771038059300611000,10.053611083984375,20.943750381469727,37.05000305175781,19.6875
1771038059310611200,10.063611083984375,21.693750381469727,36.67500305175781,19.5
1771038059320611000,10.073611083984375,21.731250762939453,36.22500228881836,19.78125
1771038059330611200,10.083611083984374,21.525001525878906,36.09375,20.475000381469727
1771038059340611000,10.093611083984374,21.450000762939453,35.83125305175781,20.64375114440918
1771038059350611200,10.103611083984376,20.8125,36.07500076293945,20.943750381469727
1771038059360611000,10.113611083984376,19.912500381469727,36.243751525878906,21.39375114440918
1771038059370611200,10.123611083984375,19.33125114440918,36.39375305175781,21.712501525878906
1771038059380611000,10.133611083984375,18.65625,36.76875305175781,21.975000381469727
1771038059390611200,10.143611083984375,17.981250762939453,37.06875228881836,22.556251525878906
1771038059400611000,10.153611083984375,17.73750114440918,37.20000076293945,22.89375114440918
1771038059410611200,10.163611083984375,17.231250762939453,37.38750076293945,23.025001525878906
1771038059420611000,10.173611083984374,16.650001525878906,37.51875305175781,23.418750762939453
1771038059430611200,10.183611083984376,16.012500762939453,37.48125076293945,23.793750762939453
1771038059440611000,10.193611083984376,15.43125057220459,37.57500076293945,23.850000381469727
1771038059450611200,10.203611083984375,14.381250381469727,37.743751525878906,24.187501907348633
1771038059460611000,10.213611083984375,12.937500953674316,37.837501525878906,24.67500114440918
1771038059470611200,10.223611083984375,11.49375057220459,37.98750305175781,25.23750114440918
1771038059480611000,10.233611083984375,9.768750190734863,38.17500305175781,25.61250114440918
1771038059490611200,10.243611083984375,8.043750762939453,37.85625076293945,25.89375114440918
1771038059500611000,10.253611083984374,6.281250476837158,38.400001525878906,26.718751907348633
1771038059510611200,10.263611083984374,4.912500381469727,38.306251525878906,27.131250381469727
1771038059520611000,10.273611083984376,3.1500000953674316,38.32500076293945,27.562501907348633
1771038059530611200,10.283611083984376,2.0625,38.0625,27.975000381469727
1771038059540611000,10.293611083984375,1.125,37.743751525878906,28.218751907348633
1771038059550611200,10.303611083984375,-0.11250000447034836,37.16250228881836,28.256250381469727
1771038059560611000,10.313611083984375,-1.6875001192092896,36.900001525878906,28.593751907348633
1771038059570611200,10.323611083984375,-3.2250001430511475,36.75,28.98750114440918
1771038059580611000,10.333611083984374,-5.550000190734863,36.22500228881836,29.025001525878906
1771038059590611200,10.343611083984374,-7.875000476837158,35.94375228881836,28.668750762939453
1771038059600611000,10.353611083984376,-10.21875,35.306251525878906,28.368751525878906
1771038059610611200,10.363611083984376,-12.937500953674316,35.118751525878906,27.86250114440918
1771038059620611000,10.373611083984375,-15.918750762939453,34.70625305175781,27.450000762939453
1771038059630611200,10.383611083984375,-18.337501525878906,34.35000228881836,27.000001907348633
1771038059640611000,10.393611083984375,-20.26875114440918,33.75,26.26875114440918
1771038059650611200,10.403611083984375,-22.162500381469727,33.73125076293945,25.781251907348633
1771038059660611000,10.413611083984375,-22.912500381469727,33.26250076293945,25.80000114440918
1771038059670611200,10.423611083984374,-23.381250381469727,33.056251525878906,26.006250381469727
1771038059680611000,10.433611083984376,-23.493751525878906,32.73750305175781,25.762500762939453
1771038059690611200,10.443611083984376,-23.306251525878906,32.47500228881836,26.343751907348633
1771038059700611000,10.453611083984375,-22.537500381469727,32.36250305175781,27.037500381469727
1771038059710611200,10.463611083984375,-21.712501525878906,32.25,28.200000762939453
1771038059720611000,10.473611083984375,-20.681251525878906,32.17500305175781,29.625001907348633
1771038059730611200,10.483611083984375,-19.443750381469727,31.668750762939453,30.86250114440918
1771038059740611000,10.493611083984375,-18.637500762939453,31.275001525878906,31.51875114440918
1771038059750611200,10.503611083984374,-18.431251525878906,30.67500114440918,32.38125228881836
1771038059760611000,10.513611083984374,-18.150001525878906,30.131250381469727,33.07500076293945
1771038059770611200,10.523611083984376,-18.356250762939453,29.587501525878906,33.69375228881836
1771038059780611000,10.533611083984376,-18.450000762939453,29.212501525878906,34.29375076293945
1771038059790611200,10.543611083984375,-18.150001525878906,29.118751525878906,34.42500305175781
1771038059800611000,10.553611083984375,-17.53125,28.781251907348633,34.42500305175781
1771038059810611200,10.563611083984375,-16.462501525878906,28.98750114440918,34.96875
1771038059820611000,10.573611083984375,-14.625000953674316,29.306251525878906,35.55000305175781
1771038059830611200,10.583611083984374,-12.075000762939453,29.906251907348633,36.13125228881836
1771038059840611000,10.593611083984374,-9.168750762939453,30.86250114440918,36.91875076293945
1771038059850611200,10.603611083984376,-5.418750286102295,32.19375228881836,36.69375228881836
1771038059860611000,10.613611083984376,-1.4625000953674316,32.94375228881836,35.493751525878906
1771038059870611200,10.623611083984375,2.3062500953674316,33.58125305175781,34.25625228881836
1771038059880611000,10.633611083984375,5.606250286102295,34.38750076293945,33.11250305175781
1771038059890611200,10.643611083984375,8.268750190734863,34.85625076293945,31.818750381469727
1771038059900611000,10.653611083984375,9.862500190734863,35.587501525878906,30.450000762939453
1771038059910611200,10.663611083984375,10.518750190734863,36.28125,29.062501907348633
1771038059920611000,10.673611083984374,10.950000762939453,36.9375,27.506250381469727
1771038059930611200,10.683611083984376,11.175000190734863,37.14375305175781,26.231250762939453
1771038059940611000,10.693611083984376,11.456250190734863,37.44375228881836,25.687501907348633
1771038059950611200,10.703611083984375,11.850000381469727,37.76250076293945,24.712501525878906
1771038059960611000,10.713611083984375,12.356250762939453,38.00625228881836,23.756250381469727
1771038059970611200,10.723611083984375,13.143750190734863,38.36250305175781,22.443750381469727
1771038059980611000,10.733611083984375,14.475000381469727,38.28750228881836,21.09375
1771038059990611200,10.743611083984375,16.78125,37.81875228881836,19.42500114440918
1771038060000611000,10.753611083984374,18.525001525878906,37.33125305175781,18.48750114440918
1771038060010611200,10.763611083984374,20.137500762939453,36.712501525878906,17.90625
1771038060020611000,10.773611083984376,21.46875,36.13125228881836,17.8125
1771038060030611200,10.783611083984376,22.162500381469727,36.84375,18.075000762939453
1771038060040611000,10.793611083984375,22.89375114440918,36.056251525878906,16.96875
1771038060050611200,10.803611083984375,23.043750762939453,35.00625228881836,17.381250381469727
1771038060060611000,10.813611083984375,22.631250381469727,35.0625,18.131250381469727
1771038060070611200,10.823611083984375,21.67500114440918,35.306251525878906,19.162500381469727
1771038060080611000,10.833611083984374,20.981250762939453,35.53125,19.725000381469727
1771038060090611200,10.843611083984374,19.89375114440918,35.79375076293945,20.512500762939453
1771038060100611000,10.853611083984376,18.95625114440918,36.63750076293945,20.83125114440918
1771038060110611200,10.863611083984376,18.225000381469727,35.92500305175781,21.525001525878906
1771038060120611000,10.873611083984375,17.17500114440918,36.525001525878906,23.53125
1771038060130611200,10.883611083984375,16.14375114440918,37.61250305175781,24.131250381469727
1771038060140611000,10.893611083984375,15.375000953674316,37.875,24.375001907348633
1771038060150611200,10.903611083984375,14.643750190734863,37.66875076293945,25.23750114440918
1771038060160611000,10.913611083984375,13.312500953674316,37.59375,25.80000114440918
1771038060170611200,10.923611083984374,11.90625,37.875,25.89375114440918
1771038060180611000,10.933611083984376,10.27500057220459,37.5,26.156251907348633
1771038060190611200,10.943611083984376,8.15625,37.44375228881836,26.681251525878906
1771038060200611000,10.953611083984375,6.412500381469727,38.08125305175781,26.793750762939453
1771038060210611200,10.963611083984375,4.725000381469727,37.837501525878906,27.037500381469727
1771038060220611000,10.973611083984375,3.4312500953674316,37.275001525878906,27.506250381469727
1771038060230611200,10.983611083984375,1.9687501192092896,37.57500076293945,27.67500114440918
1771038060240611000,10.993611083984375,0.8250000476837158,37.48125076293945,28.125001907348633
1771038060250611200,11.003611083984374,0.20625001192092896,36.9375,29.08125114440918
1771038060260611000,11.013611083984374,-0.6937500238418579,37.03125,30.056251525878906
1771038060270611200,11.023611083984376,-1.7062500715255737,36.84375,30.056251525878906
1771038060280611000,11.033611083984376,-3.0375001430511475,35.90625,30.243751525878906
1771038060290611200,11.043611083984375,-4.518750190734863,35.493751525878906,30.281251907348633
1771038060300611000,11.053611083984375,-6.487500190734863,35.64375305175781,30.01875114440918
1771038060310611200,11.063611083984375,-8.700000762939453,35.28750228881836,29.418750762939453
1771038060320611000,11.073611083984375,-11.193750381469727,34.98750305175781,28.631250381469727
1771038060330611200,11.083611083984374,-14.062500953674316,34.51875305175781,27.562501907348633
1771038060340611000,11.093611083984374,-16.443750381469727,34.03125,26.437501907348633
1771038060350611200,11.103611083984376,-18.337501525878906,33.5625,25.80000114440918
1771038060360611000,11.113611083984376,-20.15625,33.35625076293945,25.218751907348633
1771038060370611200,11.123611083984375,-21.5625,33.07500076293945,24.712501525878906
1771038060380611000,11.133611083984375,-22.556251525878906,32.70000076293945,24.750001907348633
1771038060390611200,11.143611083984375,-23.100000381469727,32.38125228881836,24.95625114440918
1771038060400611000,11.153611083984375,-22.931251525878906,31.818750381469727,25.42500114440918
1771038060410611200,11.163611083984375,-22.89375114440918,31.556251525878906,26.325000762939453
1771038060420611000,11.173611083984374,-22.89375114440918,31.256250381469727,27.337501525878906
1771038060430611200,11.183611083984376,-22.481250762939453,31.031251907348633,28.687501907348633
1771038060440611000,11.193611083984376,-21.5625,30.843751907348633,30.225000381469727
1771038060450611200,11.203611083984375,-20.8125,30.562501907348633,32.00625228881836
1771038060460611000,11.213611083984375,-20.043750762939453,30.01875114440918,33.03750228881836
1771038060470611200,11.223611083984375,-19.725000381469727,29.325000762939453,34.35000228881836
1771038060480611000,11.233611083984375,-19.875,29.118751525878906,35.25
1771038060490611200,11.243611083984375,-19.96875,28.968751907348633,35.73750305175781
1771038060500611000,11.253611083984374,-20.25,28.462501525878906,36
1771038060510611200,11.263611083984374,-20.662500381469727,27.993751525878906,36.337501525878906
1771038060520611000,11.273611083984376,-21.356250762939453,27.750001907348633,36.67500305175781
1771038060530611200,11.283611083984376,-21.056251525878906,27.356250762939453,36.67500305175781
1771038060540611000,11.293611083984375,-20.100000381469727,26.981250762939453,37.40625
1771038060550611200,11.303611083984375,-18.431251525878906,27.450000762939453,38.08125305175781
1771038060560611000,11.313611083984375,-15.975000381469727,28.33125114440918,38.775001525878906
1771038060570611200,11.323611083984375,-12.037500381469727,27.825000762939453,38.94375228881836
1771038060580611000,11.333611083984374,-7.781250476837158,29.043750762939453,39.45000076293945
1771038060590611200,11.343611083984374,-3.2250001430511475,29.943750381469727,38.962501525878906
1771038060600611000,11.353611083984376,1.3312500715255737,30.731250762939453,37.96875
1771038060610611200,11.363611083984376,4.706250190734863,31.593751907348633,37.14375305175781
1771038060620611000,11.373611083984375,6.768750190734863,32.92500305175781,35.85000228881836
1771038060630611200,11.383611083984375,8.381250381469727,33.67500305175781,34.21875
1771038060640611000,11.393611083984375,9.356250762939453,34.20000076293945,32.28750228881836
1771038060650611200,11.403611083984375,9.581250190734863,36,30.86250114440918
1771038060660611000,11.413611083984375,9.99375057220459,36.39375305175781,28.950000762939453
1771038060670611200,11.423611083984374,10.612500190734863,37.05000305175781,27.318750381469727
1771038060680611000,11.433611083984376,11.362500190734863,37.14375305175781,26.250001907348633
1771038060690611200,11.443611083984376,12.468750953674316,37.23750305175781,24.787500381469727
1771038060700611000,11.453611083984375,14.193750381469727,37.16250228881836,23.606250762939453
1771038060710611200,11.463611083984375,15.937500953674316,36.97500228881836,22.875
1771038060720611000,11.473611083984375,17.92500114440918,35.94375228881836,22.537500381469727
1771038060730611200,11.483611083984375,19.23750114440918,35.66250228881836,22.80000114440918
1771038060740611000,11.493611083984375,20.193750381469727,35.13750076293945,23.475000381469727
1771038060750611200,11.503611083984374,20.55000114440918,34.38750076293945,24.20625114440918
1771038060760611000,11.513611083984374,20.4375,34.29375076293945,24.806251525878906
1771038060770611200,11.523611083984376,20.34375,34.57500076293945,25.912500381469727
1771038060780611000,11.533611083984376,19.98750114440918,34.29375076293945,26.606250762939453
1771038060790611200,11.543611083984375,19.78125,34.16250228881836,26.92500114440918
1771038060800611000,11.553611083984375,19.162500381469727,35.025001525878906,27.806251525878906
1771038060810611200,11.563611083984375,18.806251525878906,34.89375305175781,28.087501525878906
1771038060820611000,11.573611083984375,18.30000114440918,34.80000305175781,28.14375114440918
1771038060830611200,11.583611083984374,17.418750762939453,35.23125076293945,28.42500114440918
1771038060840611000,11.593611083984374,16.537500381469727,35.53125,28.856250762939453
1771038060850611200,11.603611083984376,15.52500057220459,35.08125305175781,28.968751907348633
1771038060860611000,11.613611083984376,14.643750190734863,35.36250305175781,29.26875114440918
1771038060870611200,11.623611083984375,13.55625057220459,35.64375305175781,29.92500114440918
1771038060880611000,11.633611083984375,12.15000057220459,35.34375,30.093751907348633
1771038060890611200,11.643611083984375,10.55625057220459,35.400001525878906,30.262500762939453
1771038060900611000,11.653611083984375,8.737500190734863,35.45625305175781,30.900001525878906
1771038060910611200,11.663611083984375,6.993750095367432,35.32500076293945,31.481250762939453
1771038060920611000,11.673611083984374,4.931250095367432,35.212501525878906,31.781251907348633
1771038060930611200,11.683611083984376,3.2062501907348633,35.493751525878906,32.47500228881836
1771038060940611000,11.693611083984376,1.4812500476837158,35.493751525878906,33.337501525878906
1771038060950611200,11.703611083984375,-0.05625000223517418,34.80000305175781,33.712501525878906
1771038060960611000,11.713611083984375,-1.5187500715255737,34.03125,34.368751525878906
1771038060970611200,11.723611083984375,-2.5875000953674316,33.618751525878906,35.25
1771038060980611000,11.733611083984375,-3.750000238418579,33.11250305175781,35.4375
1771038060990611200,11.743611083984375,-4.856250286102295,32.36250305175781,35.15625
1771038061000611000,11.753611083984374,-6.412500381469727,31.912500381469727,35.17500305175781
1771038061010611200,11.763611083984374,-8.193750381469727,31.462501525878906,34.650001525878906
1771038061020611000,11.773611083984376,-10.425000190734863,30.881250381469727,33.9375
1771038061030611200,11.783611083984376,-12.656250953674316,30.86250114440918,33.41250228881836
1771038061040611000,11.793611083984375,-14.77500057220459,31.14375114440918,32.71875
1771038061050611200,11.803611083984375,-17.325000762939453,30.750001907348633,31.33125114440918
1771038061060611000,11.813611083984375,-19.931251525878906,30.506250381469727,30.225000381469727
1771038061070611200,11.823611083984375,-22.481250762939453,30.600000381469727,30.000001907348633
1771038061080611000,11.833611083984374,-24,30.39375114440918,29.212501525878906
1771038061090611200,11.843611083984374,-25.087501525878906,29.906251907348633,28.743751525878906
1771038061100611000,11.853611083984376,-25.687501907348633,29.718751907348633,28.856250762939453
1771038061110611200,11.863611083984376,-25.912500381469727,29.325000762939453,28.762500762939453
1771038061120611000,11.873611083984375,-25.70625114440918,28.650001525878906,29.100000381469727
1771038061130611200,11.883611083984375,-25.23750114440918,28.631250381469727,30.225000381469727
1771038061140611000,11.893611083984375,-24.225000381469727,28.631250381469727,31.406251907348633
1771038061150611200,11.903611083984375,-22.96875,28.387500762939453,32.4375
1771038061160611000,11.913611083984375,-21.993751525878906,28.14375114440918,34.14375305175781
1771038061170611200,11.923611083984374,-21.375,27.825000762939453,35.38125228881836
1771038061180611000,11.933611083984376,-20.83125114440918,27.375001907348633,36.03750228881836
1771038061190611200,11.943611083984376,-21,27.056251525878906,37.087501525878906
1771038061200611000,11.953611083984375,-21.262500762939453,26.92500114440918,37.3125
1771038061210611200,11.963611083984375,-21.46875,26.475000381469727,37.35000228881836
1771038061220611000,11.973611083984375,-21.412500381469727,25.950000762939453,37.89375305175781
1771038061230611200,11.983611083984375,-21.1875,25.725000381469727,38.493751525878906
1771038061240611000,11.993611083984375,-20.587501525878906,25.80000114440918,38.587501525878906
1771038061250611200,12.003611083984374,-18.825000762939453,26.212501525878906,38.98125076293945
1771038061260611000,12.013611083984374,-16.200000762939453,26.587501525878906,39.525001525878906
1771038061270611200,12.023611083984376,-12.543750762939453,27.30000114440918,39.69375228881836
1771038061280611000,12.033611083984376,-8.381250381469727,28.162500381469727,39.60000228881836
1771038061290611200,12.043611083984375,-3.825000047683716,29.006250381469727,39.712501525878906
1771038061300611000,12.053611083984375,0.39375001192092896,29.850000381469727,39.07500076293945
1771038061310611200,12.063611083984375,4.425000190734863,30.750001907348633,37.6875
1771038061320611000,12.073611083984375,7.612500190734863,31.593751907348633,36.39375305175781
1771038061330611200,12.083611083984374,9.393750190734863,32.306251525878906,35.36250305175781
1771038061340611000,12.093611083984374,10.331250190734863,33.35625076293945,34.3125
1771038061350611200,12.103611083984376,10.200000762939453,34.3125,33
1771038061360611000,12.113611083984376,10.012500762939453,34.80000305175781,32.13750076293945
1771038061370611200,12.123611083984375,9.99375057220459,35.47500228881836,31.350000381469727
1771038061380611000,12.133611083984375,10.162500381469727,36.26250076293945,30.58125114440918
1771038061390611200,12.143611083984375,10.762500762939453,36.431251525878906,29.625001907348633
1771038061400611000,12.153611083984375,11.550000190734863,36.31875228881836,28.725000381469727
1771038061410611200,12.163611083984375,12.937500953674316,36.5625,27.750001907348633
1771038061420611000,12.173611083984374,14.700000762939453,36.41250228881836,26.531251907348633
1771038061430611200,12.183611083984376,16.80000114440918,35.64375305175781,25.80000114440918
1771038061440611000,12.193611083984376,18.5625,35.26875305175781,25.275001525878906
1771038061450611200,12.203611083984375,19.80000114440918,34.63125228881836,24.30000114440918
1771038061460611000,12.213611083984375,20.662500381469727,33.78750228881836,23.418750762939453
1771038061470611200,12.223611083984375,20.943750381469727,33.337501525878906,23.4375
1771038061480611000,12.233611083984375,21.30000114440918,33.30000305175781,23.71875
1771038061490611200,12.243611083984375,21.037500381469727,32.94375228881836,24.131250381469727
1771038061500611000,12.253611083984374,20.53125,32.962501525878906,24.787500381469727
1771038061510611200,12.263611083984374,20.25,32.98125076293945,25.33125114440918
1771038061520611000,12.273611083984376,19.387500762939453,33.150001525878906,26.212501525878906
1771038061530611200,12.283611083984376,18.543750762939453,33.20625305175781,27.281251907348633
1771038061540611000,12.293611083984375,17.71875,33.09375,28.350000381469727
1771038061550611200,12.303611083984375,16.725000381469727,32.90625,29.64375114440918
1771038061560611000,12.313611083984375,15.33750057220459,32.92500305175781,30.450000762939453
1771038061570611200,12.323611083984375,14.325000762939453,32.681251525878906,31.23750114440918
1771038061580611000,12.333611083984374,12.825000762939453,31.781251907348633,32.13750076293945
1771038061590611200,12.343611083984374,10.875,31.781251907348633,33.20625305175781
1771038061600611000,12.353611083984376,9.356250762939453,31.556251525878906,33.91875076293945
1771038061610611200,12.363611083984376,7.368750095367432,31.293750762939453,34.275001525878906
1771038061620611000,12.373611083984375,5.0625,31.481250762939453,35.0625
1771038061630611200,12.383611083984375,2.6812500953674316,31.931251525878906,35.56875228881836
1771038061640611000,12.393611083984375,0.4312500059604645,31.631250381469727,36.69375228881836
1771038061650611200,12.403611083984375,-1.7062500715255737,31.33125114440918,37.48125076293945
1771038061660611000,12.413611083984375,-3.2062501907348633,31.33125114440918,38.15625
1771038061670611200,12.423611083984374,-4.237500190734863,30.86250114440918,39.056251525878906
1771038061680611000,12.433611083984376,-5.512500286102295,30.243751525878906,39.76875305175781
1771038061690611200,12.443611083984376,-6.993750095367432,29.625001907348633,40.53750228881836
1771038061700611000,12.453611083984375,-8.40000057220459,28.950000762939453,40.61250305175781
1771038061710611200,12.463611083984375,-9.61875057220459,28.012500762939453,40.181251525878906
1771038061720611000,12.473611083984375,-10.706250190734863,27.58125114440918,39.63750076293945
1771038061730611200,12.483611083984375,-12.52500057220459,27.262500762939453,38.868751525878906
1771038061740611000,12.493611083984375,-14.643750190734863,27.150001525878906,38.0625
1771038061750611200,12.503611083984374,-17.137500762939453,26.906251907348633,36.618751525878906
1771038061760611000,12.513611083984374,-19.3125,26.887500762939453,35.0625
1771038061770611200,12.523611083984376,-21,27.30000114440918,33.88125228881836
1771038061780611000,12.533611083984376,-22.33125114440918,27.431251525878906,33.07500076293945
1771038061790611200,12.543611083984375,-23.90625,27.618751525878906,32.8125
1771038061800611000,12.553611083984375,-25.068750381469727,27.750001907348633,32.04375076293945
1771038061810611200,12.563611083984375,-25.481250762939453,27.975000381469727,31.931251525878906
1771038061820611000,12.573611083984375,-25.593751907348633,27.900001525878906,31.818750381469727
1771038061830611200,12.583611083984374,-25.42500114440918,28.068750381469727,32.08125305175781
1771038061840611000,12.593611083984374,-24.95625114440918,27.86250114440918,32.98125076293945
1771038061850611200,12.603611083984376,-24.281251907348633,27.450000762939453,33.993751525878906
1771038061860611000,12.613611083984376,-22.96875,27.318750381469727,34.931251525878906
1771038061870611200,12.623611083984375,-21.431251525878906,27.262500762939453,35.47500228881836
1771038061880611000,12.633611083984375,-20.53125,27.000001907348633,36.48750305175781
1771038061890611200,12.643611083984375,-19.950000762939453,26.700000762939453,37.181251525878906
1771038061900611000,12.653611083984375,-20.137500762939453,26.437501907348633,37.61250305175781
1771038061910611200,12.663611083984375,-20.325000762939453,25.912500381469727,37.85625076293945
1771038061920611000,12.673611083984374,-21,25.593751907348633,37.556251525878906
1771038061930611200,12.683611083984376,-21.48750114440918,25.293750762939453,37.275001525878906
1771038061940611000,12.693611083984376,-22.443750381469727,24.843751907348633,37.35000228881836
1771038061950611200,12.703611083984375,-22.818750381469727,24.58125114440918,37.91250228881836
1771038061960611000,12.713611083984375,-21.993751525878906,24.525001525878906,38.53125
1771038061970611200,12.723611083984375,-20.493751525878906,24.562501907348633,39.056251525878906
1771038061980611000,12.733611083984375,-17.475000381469727,24.900001525878906,40.06875228881836
1771038061990611200,12.743611083984375,-13.83750057220459,25.51875114440918,40.91250228881836
1771038062000611000,12.753611083984374,-9.506250381469727,26.418750762939453,41.71875
1771038062010611200,12.763611083984374,-4.931250095367432,27.30000114440918,41.94375228881836
1771038062020611000,12.773611083984376,-0.5437500476837158,28.125001907348633,41.71875
1771038062030611200,12.783611083984376,3.4312500953674316,28.912500381469727,41.025001525878906
1771038062040611000,12.793611083984375,5.8125,29.906251907348633,40.05000305175781
1771038062050611200,12.803611083984375,7.668750286102295,30.76875114440918,38.868751525878906
1771038062060611000,12.813611083984375,8.30625057220459,31.837501525878906,37.76250076293945
1771038062070611200,12.823611083984375,8.68125057220459,32.73750305175781,36.67500305175781
1771038062080611000,12.833611083984374,9,33.525001525878906,35.681251525878906
1771038062090611200,12.843611083984374,9.637500762939453,33.91875076293945,34.743751525878906
1771038062100611000,12.853611083984376,10.3125,34.35000228881836,33.5625
1771038062110611200,12.863611083984376,11.456250190734863,34.63125228881836,32.19375228881836
1771038062120611000,12.873611083984375,13.593750953674316,34.61250305175781,30.656251907348633
1771038062130611200,12.883611083984375,15.600000381469727,34.51875305175781,29.73750114440918
1771038062140611000,12.893611083984375,17.943750381469727,34.06875228881836,28.61250114440918
1771038062150611200,12.903611083984375,19.856250762939453,33.73125076293945,27.975000381469727
1771038062160611000,12.913611083984375,21.318750381469727,33.26250076293945,27.39375114440918
1771038062170611200,12.923611083984374,21.76875114440918,33.11250305175781,27.056251525878906
1771038062180611000,12.933611083984376,22.106250762939453,33.01875305175781,27.243751525878906
1771038062190611200,12.943611083984376,21.825000762939453,33.11250305175781,27.86250114440918
1771038062200611000,12.953611083984375,21.412500381469727,32.962501525878906,28.537500381469727
1771038062210611200,12.963611083984375,20.962501525878906,33.07500076293945,29.231250762939453
1771038062220611000,12.973611083984375,20.325000762939453,33.22500228881836,29.700000762939453
1771038062230611200,12.983611083984375,19.631250381469727,33.431251525878906,30.01875114440918
1771038062240611000,12.993611083984375,18.993751525878906,33.60000228881836,30.337501525878906
1771038062250611200,13.003611083984374,18.01875114440918,33.73125076293945,30.787500381469727
1771038062260611000,13.013611083984374,17.08125114440918,33.900001525878906,30.993751525878906
1771038062270611200,13.023611083984376,16.068750381469727,34.06875228881836,31.33125114440918
1771038062280611000,13.033611083984376,14.662500381469727,34.3125,31.687501907348633
1771038062290611200,13.043611083984375,13.068750381469727,34.25625228881836,31.856250762939453
1771038062300611000,13.053611083984375,11.30625057220459,34.21875,32.587501525878906
1771038062310611200,13.063611083984375,9.33750057220459,34.16250228881836,32.962501525878906
1771038062320611000,13.073611083984375,6.825000286102295,34.125,33.69375228881836
1771038062330611200,13.083611083984374,4.481250286102295,34.181251525878906,34.5
1771038062340611000,13.093611083984374,2.231250047683716,34.10625076293945,35.28750228881836
1771038062350611200,13.103611083984376,0.24375000596046448,33.84375,35.962501525878906
1771038062360611000,13.113611083984376,-1.0875000953674316,33.5625,37.01250076293945
1771038062370611200,13.123611083984375,-1.6875001192092896,33.31875228881836,38.04375076293945
1771038062380611000,13.133611083984375,-2.1937501430511475,32.98125076293945,38.53125
1771038062390611200,13.143611083984375,-2.5500001907348633,32.23125076293945,39.431251525878906
1771038062400611000,13.153611083984375,-3.262500047683716,31.687501907348633,40.14375305175781
1771038062410611200,13.163611083984375,-3.9750001430511475,30.975000381469727,40.14375305175781
1771038062420611000,13.173611083984374,-5.15625,30.375001907348633,39.9375
1771038062430611200,13.183611083984376,-6.656250476837158,29.92500114440918,39.60000228881836
1771038062440611000,13.193611083984376,-8.90625,29.437501907348633,38.70000076293945
1771038062450611200,13.203611083984375,-11.362500190734863,29.212501525878906,37.556251525878906
1771038062460611000,13.213611083984375,-13.950000762939453,28.89375114440918,36.618751525878906
1771038062470611200,13.223611083984375,-16.950000762939453,29.156251907348633,35.38125228881836
1771038062480611000,13.233611083984375,-19.068750381469727,29.156251907348633,34.20000076293945
1771038062490611200,13.243611083984375,-21.131250381469727,29.043750762939453,33.48750305175781
1771038062500611000,13.253611083984374,-22.725000381469727,28.98750114440918,33.07500076293945
1771038062510611200,13.263611083984374,-24.187501907348633,28.80000114440918,32.75625228881836
1771038062530611200,13.283611083984376,-25.05000114440918,27.806251525878906,33.5625
1771038062540611000,13.293611083984375,-25.200000762939453,27.431251525878906,34.57500076293945
1771038062550611200,13.303611083984375,-24.356250762939453,26.64375114440918,35.8125
1771038062560611000,13.313611083984375,-23.26875114440918,25.98750114440918,37.14375305175781
1771038062570611200,13.323611083984375,-21.806251525878906,25.537500381469727,38.64375305175781
1771038062580611000,13.333611083984374,-20.756250381469727,24.825000762939453,40.35000228881836
1771038062590611200,13.343611083984374,-19.70625114440918,23.681251525878906,41.587501525878906
1771038062600611000,13.353611083984376,-19.59375,23.0625,42.73125076293945
1771038062610611200,13.363611083984376,-19.78125,22.40625,43.21875
1771038062620611000,13.373611083984375,-20.025001525878906,21.412500381469727,43.44375228881836
1771038062630611200,13.383611083984375,-20.625,20.775001525878906,43.72500228881836
1771038062640611000,13.393611083984375,-20.943750381469727,20.34375,43.89375305175781
1771038062650611200,13.403611083984375,-20.775001525878906,19.762500762939453,44.26875305175781
1771038062660611000,13.413611083984375,-19.181251525878906,19.668750762939453,44.71875
1771038062670611200,13.423611083984374,-16.59375,20.08125114440918,45.431251525878906
1771038062680611000,13.433611083984376,-13.18125057220459,20.568750381469727,45.86250305175781
1771038062690611200,13.443611083984376,-8.625,21.243751525878906,46.368751525878906
1771038062700611000,13.453611083984375,-3.543750047683716,22.3125,46.462501525878906
1771038062710611200,13.463611083984375,1.8000000715255737,23.34375,46.275001525878906
1771038062720611000,13.473611083984375,6.750000476837158,24.075000762939453,45.76875305175781
1771038062730611200,13.483611083984375,10.59375,25.162500381469727,45.09375
1771038062740611000,13.493611083984375,13.125000953674316,25.98750114440918,44.0625
1771038062750611200,13.503611083984374,14.512500762939453,27.056251525878906,42.76875305175781
1771038062760611000,13.513611083984374,14.96250057220459,27.993751525878906,41.493751525878906
