time,seconds_elapsed,z,y,x
1771038049492571400,0.2455712890625,9.018548965454102,2.957528829574585,-0.7920243144035339
1771038049511537400,0.264537353515625,8.537590980529785,2.7804598808288574,-2.7086751461029053
1771038049530503700,0.283503662109375,9.442078590393066,2.5363919734954834,-3.328416347503662
1771038049549469700,0.3024697265625,9.408578872680664,1.5170495510101318,-2.7900311946868896
1771038049568435700,0.321435791015625,8.94676399230957,2.313859462738037,-3.6993038654327393
1771038049587401700,0.340401611328125,9.250652313232422,3.359523057937622,-2.63449764251709
1771038049606368000,0.359367919921875,10.49252700805664,1.9908283948898315,-2.0315065383911133
1771038049625334000,0.378333984375,11.770294189453125,-0.38285163044929504,-2.187039852142334
1771038049644300000,0.397300048828125,12.5144624710083,-1.5146567821502686,-1.7778671979904175
1771038049663266300,0.416266357421875,11.918649673461914,-1.4883357286453247,-2.63449764251709
1771038049682232300,0.435232421875,10.40638542175293,-1.581655740737915,-1.5361921787261963
1771038049701198300,0.4541982421875,9.272188186645508,-0.37806597352027893,0.727418065071106
1771038049720164600,0.47316455078125,9.664610862731934,0.6652047038078308,1.6223337650299072
1771038049739130600,0.492130615234375,11.770294189453125,0.9475577473640442,1.7252250909805298
1771038049758096600,0.5110966796875,13.074382781982422,0.9906286001205444,2.713460922241211
1771038049777063000,0.53006298828125,11.310873031616211,0.21774685382843018,2.9168508052825928
1771038049796029000,0.54902880859375,8.944371223449707,1.0456634759902954,2.5220351219177246
1771038049814995000,0.567994873046875,5.44845724105835,1.9405791759490967,1.0121639966964722
1771038049833961000,0.5869609375,3.869194269180298,5.319244861602783,-0.32542386651039124
1771038049852927200,0.60592724609375,6.271588325500488,2.830709218978882,2.304288148880005
1771038049871893200,0.624893310546875,8.204988479614258,2.4765713214874268,3.2303106784820557
1771038049890859500,0.643859619140625,8.841479301452637,2.3641088008880615,1.1437692642211914
1771038049909825500,0.662825439453125,7.989634990692139,2.2683959007263184,-0.9284151792526245
1771038049928791600,0.68179150390625,6.321837425231934,2.526820659637451,0.4737788736820221
1771038049947757600,0.700757568359375,7.599604606628418,3.1417760848999023,0.2799602448940277
1771038049966723800,0.719723876953125,8.011170387268066,2.368894338607788,0.3517449200153351
1771038049985689900,0.73868994140625,7.9250288009643555,3.1992039680480957,0.9882357716560364
1771038050004655900,0.75765576171875,8.628518104553223,3.517449378967285,0.06939185410737991
1771038050023622000,0.776621826171875,8.819944381713867,3.572484254837036,-0.11964113265275955
1771038050042588200,0.795588134765625,9.509077072143555,3.436093330383301,0.23449662327766418
1771038050061554200,0.81455419921875,9.650253295898438,4.201796531677246,0.5383850932121277
1771038050080520200,0.833520263671875,9.375079154968262,4.666004180908203,0.5431707501411438
1771038050099486500,0.852486572265625,8.477770805358887,5.017749309539795,0.8039883971214294
1771038050118452500,0.871452392578125,9.561718940734863,4.125226020812988,1.557727575302124
1771038050137418500,0.89041845703125,14.928820610046387,2.0027925968170166,0.5216353535652161
1771038050156384500,0.909384521484375,18.503698348999023,-0.2560320198535919,0.7082754969596863
1771038050175350500,0.9283505859375,18.01077651977539,-0.519242525100708,-0.5383850932121277
1771038050194316800,0.94731689453125,15.302101135253906,-0.380458801984787,-0.8566305041313171
1771038050213282800,0.96628271484375,11.140982627868652,0.02871387079358101,-0.6556333899497986
1771038050232248800,0.985248779296875,8.58066177368164,0.8757730722427368,-0.39481574296951294
1771038050251215000,1.004215087890625,7.836493968963623,1.215553879737854,-0.6460621356964111
1771038050270181000,1.02318115234375,6.8410797119140625,0.32303106784820557,-2.3784656524658203
1771038050289147100,1.042147216796875,6.853044033050537,-1.4620146751403809,-1.8185452222824097
1771038050308113200,1.061113037109375,6.467799663543701,-1.6893328428268433,-1.7395820617675781
1771038050327079200,1.0800791015625,6.092126369476318,-0.8877372145652771,-0.02632104977965355
1771038050346045400,1.09904541015625,5.410171985626221,-0.49292147159576416,0.8566305041313171
1771038050365011500,1.118011474609375,8.504091262817383,-0.6795616149902344,0.38285163044929504
1771038050383977500,1.1369775390625,6.984649181365967,-2.761317253112793,-2.0889341831207275
1771038050402943700,1.15594384765625,4.177868366241455,-5.13021183013916,-3.799802303314209
1771038050421909800,1.17490966796875,4.297509670257568,-4.156332969665527,-2.2133610248565674
1771038050440875800,1.193875732421875,-0.27038896083831787,-4.388436794281006,2.287538528442383
1771038050459841800,1.212841796875,0.5383850932121277,-2.462214469909668,3.524627685546875
1771038050478808000,1.23180810546875,3.0101709365844727,-5.848058700561523,0.9786644577980042
1771038050497774000,1.250774169921875,-1.5553346872329712,-8.202595710754395,-2.837887763977051
1771038050516740000,1.269739990234375,-0.4570291340351105,-6.977470874786377,-0.3924229145050049
1771038050535706000,1.2887060546875,0.9762716293334961,-7.23589563369751,1.459621787071228
1771038050554672000,1.307672119140625,2.5148565769195557,-11.210373878479004,0.5431707501411438
1771038050573638400,1.326638427734375,6.020341873168945,-14.36172103881836,-5.522634506225586
1771038050592604400,1.3456044921875,6.850651264190674,-15.388242721557617,-9.068798065185547
1771038050611570400,1.3645703125,4.47697114944458,-15.467206001281738,-12.284751892089844
1771038050630536700,1.38353662109375,-0.014356935396790504,-16.170696258544922,-10.588240623474121
1771038050649502700,1.402502685546875,-6.041877269744873,-16.094125747680664,-11.870793342590332
1771038050668468700,1.42146875,-5.924628734588623,-16.63968849182129,-26.79961395263672
1771038050687434800,1.440434814453125,-1.6917256116867065,-19.45604133605957,-41.269012451171875
1771038050706400800,1.45940087890625,6.879364967346191,-15.795022010803223,-40.754554748535156
1771038050725366800,1.47836669921875,10.286744117736816,-6.204588890075684,-31.59722328186035
1771038050744333000,1.4973330078125,10.590633392333984,-0.02632104977965355,-24.332612991333008
1771038050763299000,1.516299072265625,19.15215301513672,0.8901300430297852,-20.94676971435547
1771038050782219000,1.535218994140625,27.842884063720703,1.9764715433120728,-12.239287376403809
1771038050795454500,1.548454345703125,11.523834228515625,-0.550349235534668,-10.054640769958496
1771038050814420700,1.567420654296875,2.809173822402954,-4.067798614501953,-9.446864128112793
1771038050833386800,1.58638671875,1.277767300605774,-0.4498506486415863,-8.183453559875488
1771038050852352800,1.605352783203125,1.6366907358169556,-0.363709032535553,-10.561919212341309
1771038050871318800,1.62431884765625,-5.795416355133057,1.3830515146255493,-5.3312087059021
1771038050890284800,1.643284912109375,-7.317251682281494,3.105883836746216,1.454836130142212
1771038050909251000,1.6622509765625,-6.216553211212158,0.37806597352027893,4.981856822967529
1771038050928217000,1.681217041015625,-2.311466693878174,-2.321038007736206,8.781659126281738
1771038050947183000,1.70018310546875,4.273581027984619,-3.8572301864624023,4.914857864379883
1771038050966149000,1.719149169921875,-0.8327022790908813,-1.5074782371520996,0.24885354936122894
1771038050985115100,1.738115234375,6.632904529571533,-1.6845471858978271,-2.3545374870300293
1771038051004081400,1.757081298828125,-2.1296122074127197,-0.4211367964744568,-10.164710998535156
1771038051023047400,1.77604736328125,-13.246665954589844,-9.154939651489258,-10.021141052246094
1771038051042013400,1.795013427734375,2.3784656524658203,-13.433306694030762,-11.858829498291016
1771038051060979500,1.8139794921875,3.579662561416626,-7.5708909034729,-13.12702465057373
1771038051079945500,1.832945556640625,-3.421736478805542,-10.107282638549805,-15.850057601928711
1771038051098911700,1.851911865234375,4.431507587432861,-13.538590431213379,-12.897314071655273
1771038051117877800,1.870877685546875,16.252052307128906,-10.490134239196777,-8.346165657043457
1771038051136843800,1.88984375,11.988041877746582,-9.365508079528809,-2.8522446155548096
1771038051155809800,1.908809814453125,13.2897367477417,-8.260024070739746,4.383651256561279
1771038051174776000,1.927776123046875,13.294522285461426,-13.686945915222168,2.5363919734954834
1771038051193742000,1.9467421875,9.408578872680664,-19.496719360351562,1.0432707071304321
1771038051212708000,1.9657080078125,-3.139383316040039,-21.109481811523438,-9.432506561279297
1771038051231674000,1.984674072265625,-8.748159408569336,-21.23390769958496,-22.956741333007812
1771038051250640400,2.003640380859375,0.7130611538887024,-8.819944381713867,-24.66521644592285
1771038051269606400,2.0226064453125,8.863015174865723,-0.43549370765686035,-11.992827415466309
1771038051288572400,2.041572509765625,-1.2586246728897095,1.7132610082626343,-2.4741785526275635
1771038051307538400,2.060538330078125,-4.766502857208252,4.790431022644043,-2.8139593601226807
1771038051326504400,2.07950439453125,-4.847858905792236,3.029313564300537,-0.4259224236011505
1771038051345470700,2.098470703125,-0.4498506486415863,-3.1585259437561035,0.9810572862625122
1771038051364436700,2.117436767578125,-4.005585193634033,-4.340580463409424,1.7467604875564575
1771038051383402800,2.13640283203125,-0.32542386651039124,-2.8043880462646484,3.2159535884857178
1771038051402368800,2.15536865234375,2.368894338607788,-2.115255117416382,3.043670415878296
1771038051421335000,2.1743349609375,6.120840549468994,-1.1341979503631592,2.0195422172546387
1771038051440301000,2.193301025390625,-0.7322037220001221,-1.3112667798995972,1.5792629718780518
1771038051459267000,2.21226708984375,4.852644443511963,-3.1728827953338623,1.612762451171875
1771038051478233000,2.231233154296875,-7.221538543701172,-10.552348136901855,0.727418065071106
1771038051497199400,2.250199462890625,-28.13959503173828,-39.87399673461914,5.3455657958984375
1771038051516165400,2.269165283203125,80.41320037841797,-97.38787841796875,1.3639088869094849
1771038051535131400,2.28813134765625,8.169096946716309,-45.40620422363281,9.858428955078125
1771038051554097400,2.307097412109375,-1.0863415002822876,-12.160325050354004,-8.642875671386719
1771038051573063700,2.326063720703125,-3.28773832321167,-9.470791816711426,-4.599005222320557
1771038051592029700,2.34502978515625,-3.373879909515381,-5.111069202423096,-2.6464617252349854
1771038051610995700,2.36399560546875,-6.16391134262085,0.9379864931106567,-0.9571290612220764
1771038051629961700,2.382961669921875,-4.034298896789551,4.785645484924316,1.9956140518188477
1771038051648928000,2.401927978515625,-2.091326951980591,4.555934429168701,2.4646072387695312
1771038051667894000,2.42089404296875,-6.522834300994873,4.244867324829102,1.3160524368286133
1771038051686860000,2.439860107421875,-3.8811583518981934,2.9240293502807617,0.20578274130821228
1771038051705826000,2.458825927734375,-0.11485548317432404,1.588834285736084,0.4498506486415863
1771038051724792300,2.477792236328125,2.115255117416382,0.8374879360198975,0.4833501875400543
1771038051743758300,2.49675830078125,29.580074310302734,-6.427121639251709,4.895715236663818
1771038051762724400,2.515724365234375,9.958928108215332,-10.782058715820312,4.398007869720459
1771038051781690600,2.534690673828125,-15.610774993896484,-4.268795490264893,-2.445464849472046
1771038051800656600,2.55365673828125,-21.990039825439453,-4.527220249176025,-9.561718940734863
1771038051819622700,2.57262255859375,-5.034498691558838,-3.9146578311920166,-1.9046868085861206
1771038051838589000,2.5915888671875,-5.3216376304626465,-5.436492919921875,-0.4977070987224579
1771038051857555000,2.610554931640625,-1.5074782371520996,-4.541577339172363,0.6747759580612183
1771038051876521000,2.62952099609375,-3.7950167655944824,-6.695117950439453,2.2683959007263184
1771038051895487000,2.648487060546875,-7.920242786407471,-13.950156211853027,4.642076015472412
1771038051914453200,2.667453369140625,-18.032312393188477,-34.93999481201172,-1.3160524368286133
1771038051933419300,2.686419189453125,-23.344377517700195,-61.902320861816406,-14.538790702819824
1771038051952385300,2.70538525390625,-8.417949676513672,-44.611785888671875,-10.39920711517334
1771038051971351600,2.7243515625,68.90850830078125,-24.823143005371094,-17.08953857421875
1771038051990317600,2.743317626953125,22.980669021606445,-12.356535911560059,-7.101897716522217
1771038052009283600,2.76228369140625,7.183253765106201,-11.662617683410645,-6.900900363922119
1771038052028249900,2.781249755859375,1.8664016723632812,-7.408178806304932,-4.3788652420043945
1771038052047215900,2.8002158203125,7.441678524017334,-0.32542386651039124,-0.14835500717163086
1771038052066182000,2.819181884765625,8.111668586730957,2.541177749633789,0.5599204897880554
1771038052085148200,2.838148193359375,6.948757171630859,4.019941806793213,0.5551348328590393
1771038052104114200,2.8571142578125,0.28235307335853577,1.9764715433120728,0.6747759580612183
1771038052123080400,2.87608056640625,-0.37806597352027893,1.0001999139785767,0.8279166221618652
1771038052142046500,2.89504638671875,-0.363709032535553,0.8183453679084778,1.6510475873947144
1771038052161012500,2.914012451171875,-2.1439690589904785,0.4785645306110382,1.9094724655151367
1771038052179978800,2.932978759765625,-0.5072783827781677,-0.9954141974449158,0.5742774605751038
1771038052198944800,2.95194482421875,0.7082754969596863,-2.943171739578247,0.41156548261642456
1771038052217910800,2.970910888671875,-10.193424224853516,-24.449861526489258,0.38763725757598877
1771038052236877000,2.989876953125,33.85365295410156,-80.2791976928711,-20.831912994384766
1771038052255843000,3.008843017578125,8.02074146270752,-57.89673614501953,-5.2354960441589355
1771038052274809300,3.027809326171875,-10.447063446044922,-21.812971115112305,-6.561119556427002
1771038052293775400,3.046775390625,-8.566305160522461,-7.905886173248291,-4.618147850036621
1771038052312741600,3.06574169921875,-7.11146879196167,-0.45942193269729614,-2.857030153274536
1771038052331707600,3.084707763671875,-5.2115678787231445,0.20578274130821228,-2.68953275680542
1771038052350674000,3.103673828125,-0.6029912829399109,0.727418065071106,-2.196611166000366
1771038052369640000,3.122639892578125,1.2299108505249023,1.9525432586669922,0.4450650215148926
1771038052388606000,3.14160595703125,-1.3639088869094849,3.1585259437561035,2.2444677352905273
1771038052407572200,3.160572265625,-8.671588897705078,5.077569484710693,2.8522446155548096
1771038052426538200,3.179538330078125,-3.1202406883239746,4.512863636016846,1.0193424224853516
1771038052445504500,3.19850439453125,0.9954141974449158,2.053041934967041,-0.02871387079358101
1771038052464470500,3.217470458984375,2.6321048736572266,1.2586246728897095,0.13878370821475983
1771038052483436800,3.236436767578125,32.95395278930664,-5.37906551361084,-0.04307080805301666
1771038052502402800,3.25540283203125,15.26620864868164,-7.0301127433776855,-0.05742774158716202
1771038052521369000,3.274369140625,3.656233072280884,-6.044270038604736,0.7848458290100098
1771038052540335000,3.293335205078125,-2.9718856811523438,-0.1866401731967926,1.526620864868164
1771038052559301400,3.31230126953125,-5.752345561981201,-2.9001009464263916,6.896114826202393
1771038052578267600,3.331267578125,-27.972097396850586,-11.906685829162598,8.044670104980469
1771038052597233700,3.350233642578125,-22.65045928955078,-18.180665969848633,7.015756130218506
1771038052616200000,3.369199951171875,-11.298908233642578,-20.52084732055664,6.034698486328125
1771038052635166000,3.388166015625,-7.676175117492676,-21.927825927734375,5.938985824584961
1771038052654132200,3.40713232421875,-11.380264282226562,-28.82872772216797,2.014756679534912
1771038052673098200,3.42609814453125,-20.396419525146484,-43.745582580566406,-13.63908863067627
1771038052692064500,3.445064453125,-0.02871387079358101,-34.18386459350586,-13.490734100341797
1771038052711030500,3.464030517578125,69.11907196044922,-26.87139892578125,-21.501903533935547
1771038052729996800,3.482996826171875,22.53560447692871,-14.82114315032959,-12.356535911560059
1771038052748963000,3.501963134765625,2.6799614429473877,-10.236495018005371,-8.025527000427246
1771038052767929000,3.52092919921875,3.7184464931488037,-6.829115867614746,-5.19242525100708
1771038052786895400,3.539895263671875,3.617947816848755,-3.067598581314087,-4.555934429168701
1771038052805861600,3.558861572265625,7.934599876403809,1.0097711086273193,-3.5365917682647705
1771038052824827600,3.57782763671875,4.369294166564941,2.392822742462158,-2.478964328765869
1771038052843794000,3.5967939453125,2.809173822402954,1.3304094076156616,-1.7515461444854736
1771038052862760200,3.61576025390625,2.9048867225646973,0.8949156403541565,-0.20099709928035736
1771038052881726200,3.634726318359375,-0.3684946894645691,0.9954141974449158,1.6845471858978271
1771038052900692500,3.6536923828125,-3.555734395980835,0.7226324677467346,1.5074782371520996
1771038052919658500,3.672658447265625,-1.9142581224441528,-0.727418065071106,0.17228323221206665
1771038052938624800,3.691624755859375,-3.005385160446167,-1.7515461444854736,-0.2105683982372284
1771038052957591000,3.710591064453125,-6.632904529571533,-6.20219612121582,-0.22013968229293823
1771038052976557000,3.72955712890625,20.056638717651367,-42.40081787109375,-2.2157537937164307
1771038052995523300,3.7485234375,16.663616180419922,-80.40362548828125,1.6031911373138428
1771038053014489600,3.767489501953125,-6.9822564125061035,-48.856651306152344,-0.8279166221618652
1771038053033455900,3.786455810546875,-9.078369140625,-17.170894622802734,-3.972085475921631
1771038053052422000,3.805421875,-7.915457248687744,-4.761716842651367,-2.991028308868408
1771038053071388200,3.82438818359375,-4.106083869934082,0.5742774605751038,-0.8805587291717529
1771038053090354400,3.8433544921875,-4.412364959716797,2.0721843242645264,1.100698471069336
1771038053109320700,3.86232080078125,-4.335794448852539,2.311466693878174,1.3782658576965332
1771038053128286700,3.88128662109375,-6.661618232727051,3.187239646911621,1.0336993932724
1771038053147253000,3.9002529296875,-11.327622413635254,4.838287353515625,1.1198409795761108
1771038053166219300,3.91921923828125,-4.934000492095947,3.8811583518981934,-0.2153540402650833
1771038053185185300,3.938185302734375,1.8807586431503296,2.933600664138794,-0.4833501875400543
1771038053204151600,3.957151611328125,1.8664016723632812,1.7994025945663452,-0.014356935396790504
1771038053223117800,3.976117919921875,1.8185452222824097,-1.9860427379608154,4.278367042541504
1771038053242084000,3.995083984375,28.508089065551758,-6.8004021644592285,4.661218643188477
1771038053261050400,4.01405029296875,6.154339790344238,-5.934200286865234,2.6799614429473877
1771038053280016400,4.033016357421875,-7.23589563369751,0.014356935396790504,-2.4023938179016113
1771038053298982700,4.051982666015625,-8.638090133666992,0.8662018179893494,2.6464617252349854
1771038053317949000,4.070948974609375,-25.129423141479492,-4.613361835479736,3.541377544403076
1771038053336915200,4.089915283203125,-21.09033966064453,-7.269395351409912,5.264209747314453
1771038053355881500,4.108881591796875,-7.0301127433776855,-12.509676933288574,4.675575256347656
1771038053374847700,4.12784765625,-6.345765590667725,-22.267606735229492,10.322636604309082
1771038053393813800,4.146813720703125,-18.865013122558594,-40.481773376464844,18.300308227539062
1771038053412780000,4.165780029296875,-57.63352584838867,-53.73801040649414,11.006983757019043
1771038053431746300,4.184746337890625,-5.824130535125732,-64.36214447021484,8.197810173034668
1771038053450712600,4.203712646484375,82.17431640625,-21.956541061401367,-1.1341979503631592
1771038053469678800,4.222678955078125,15.046069145202637,-14.763715744018555,-1.4213366508483887
1771038053488645000,4.24164501953125,6.015556335449219,-10.045069694519043,0.5024927258491516
1771038053507611400,4.260611328125,0.5455635786056519,-5.723631858825684,0.12442677468061447
1771038053526577400,4.279577392578125,5.154139995574951,0.03349951654672623,-0.4259224236011505
1771038053545543700,4.298543701171875,7.221538543701172,2.2636101245880127,-2.5938198566436768
1771038053564510000,4.317510009765625,1.34476637840271,1.7515461444854736,-0.8949156403541565
1771038053583476200,4.336476318359375,-1.5792629718780518,0.35413774847984314,0.32542386651039124
1771038053602442500,4.3554423828125,-1.9956140518188477,0.35892340540885925,0.9571290612220764
1771038053621408800,4.37440869140625,-1.5840486288070679,0.6508477330207825,1.8855443000793457
1771038053640375000,4.393375,-2.091326951980591,-1.3543375730514526,-0.12442677468061447
1771038053659341300,4.41234130859375,-5.225924491882324,-4.603790760040283,-0.8470591902732849
1771038053678307600,4.4313076171875,-0.7226324677467346,-37.529029846191406,-6.7621169090271
1771038053697273900,4.45027392578125,28.474590301513672,-94.1336441040039,-24.75614356994629
1771038053716240100,4.469240234375,-25.947769165039062,-49.234718322753906,-13.892727851867676
1771038053735206100,4.4882060546875,-9.56650447845459,-18.544376373291016,-13.01216983795166
1771038053754172400,4.50717236328125,-9.523433685302734,-6.374479293823242,-4.60857629776001
1771038053773138700,4.526138671875,-12.629318237304688,-3.4025938510894775,0.09571290761232376
1771038053792105000,4.54510498046875,-7.738388538360596,-1.1437692642211914,4.8574299812316895
1771038053811071200,4.5640712890625,-6.666403770446777,0.5216353535652161,5.3312087059021
1771038053830037500,4.58303759765625,-11.274980545043945,3.871587038040161,4.752145767211914
1771038053849003800,4.602003662109375,-16.768901824951172,7.221538543701172,6.230910301208496
1771038053867970000,4.620969970703125,-6.498906135559082,6.876972198486328,4.551148891448975
1771038053886936300,4.639936279296875,-0.06699903309345245,5.800201892852783,2.4406790733337402
1771038053905902600,4.658902587890625,8.030312538146973,5.383851051330566,6.168696880340576
1771038053924868900,4.677868896484375,44.95156478881836,-5.828916072845459,19.00379753112793
1771038053943835100,4.696835205078125,24.698715209960938,-9.016156196594238,7.609176158905029
1771038053962801400,4.715801513671875,7.082755088806152,-2.7038896083831787,1.3112667798995972
1771038053981767700,4.734767578125,-18.94158363342285,1.062413215637207,4.48414945602417
1771038054000734000,4.75373388671875,-38.519657135009766,-5.795416355133057,3.555734395980835
1771038054019700200,4.7727001953125,-25.636701583862305,-9.968499183654785,4.560719966888428
1771038054038666500,4.79166650390625,-9.762716293334961,-10.925628662109375,4.445864677429199
1771038054057632800,4.8106328125,-12.064611434936523,-16.620546340942383,4.618147850036621
1771038054076599000,4.82959912109375,-12.576675415039062,-30.814769744873047,7.149754047393799
1771038054095565300,4.8485654296875,-21.38226318359375,-53.7667236328125,3.900300979614258
1771038054114531600,4.867531494140625,-35.51427459716797,-53.62315368652344,-1.3926228284835815
1771038054133497900,4.886497802734375,95.02377319335938,-41.86482620239258,-13.509876251220703
1771038054152464100,4.905464111328125,27.929025650024414,-19.860427856445312,-4.067798614501953
1771038054171430400,4.924430419921875,2.746960401535034,-11.921042442321777,-2.9240293502807617
1771038054190396700,4.943396728515625,8.250452041625977,-6.455835342407227,-0.97148597240448
1771038054209363200,4.96236328125,17.74517250061035,-0.5407779216766357,0.37806597352027893
1771038054228329200,4.9813291015625,10.317851066589355,0.7992027401924133,-1.526620864868164
1771038054247295700,5.000295654296875,5.402993679046631,2.210968017578125,-2.6608188152313232
1771038054266262000,5.019261962890625,-2.5938198566436768,1.196411371231079,-2.187039852142334
1771038054285228300,5.038228271484375,-3.211168050765991,1.0001999139785767,-0.5072783827781677
1771038054304194600,5.057194580078125,-2.2157537937164307,1.832902193069458,0.6699903607368469
1771038054323160800,5.076160888671875,0.8039883971214294,1.832902193069458,1.0193424224853516
1771038054342127000,5.095127197265625,-0.8470591902732849,-0.760917603969574,0.0526420995593071
1771038054361093400,5.11409326171875,-3.4169507026672363,-1.703689694404602,0.2584248483181
1771038054380059600,5.1330595703125,-5.422136306762695,-8.417949676513672,-1.215553879737854
1771038054399026000,5.15202587890625,31.968111038208008,-53.422157287597656,-1.8999011516571045
1771038054417992200,5.1709921875,-6.005984783172607,-88.55836486816406,-3.84765887260437
1771038054436958500,5.18995849609375,-2.6608188152313232,-41.94618225097656,-9.623932838439941
1771038054455924700,5.2089248046875,-10.767702102661133,-15.548561096191406,-1.2873386144638062
1771038054474891000,5.22789111328125,-10.729416847229004,-5.312066078186035,0.27756741642951965
1771038054493857500,5.246857421875,-8.02074146270752,-1.5170495510101318,0.397208571434021
1771038054512823800,5.26582373046875,-5.474778175354004,0.24406790733337402,0.5934200286865234
1771038054531790000,5.2847900390625,-6.905686378479004,2.4885356426239014,0.5599204897880554
1771038054550756400,5.30375634765625,-9.81535816192627,4.359723091125488,1.0767701864242554
1771038054569722600,5.32272265625,-15.98884105682373,5.934200286865234,1.9812572002410889
1771038054588689000,5.34168896484375,-6.03948450088501,5.737988471984863,2.297109842300415
1771038054607655200,5.3606552734375,0.7561319470405579,4.474578380584717,1.6701902151107788
1771038054626621400,5.379621337890625,-1.2059825658798218,6.0777692794799805,2.4358935356140137
1771038054645587700,5.398587646484375,36.53840255737305,-2.785245656967163,11.490334510803223
1771038054664554200,5.41755419921875,21.095125198364258,-9.652647018432617,9.810572624206543
1771038054683520500,5.4365205078125,11.021341323852539,-7.144968509674072,6.374479293823242
1771038054702486800,5.45548681640625,6.355337142944336,0.16749759018421173,2.407179594039917
1771038054721453000,5.474453125,-17.448463439941406,-0.9667003750801086,8.13081169128418
1771038054740419300,5.49341943359375,-40.74020004272461,-6.589833736419678,7.781459331512451
1771038054759385600,5.512385498046875,-25.11985206604004,-10.068997383117676,6.623332977294922
1771038054778351900,5.531351806640625,-11.676974296569824,-12.059825897216797,5.982056617736816
1771038054797318100,5.550318115234375,-12.217752456665039,-21.152551651000977,6.522834300994873
1771038054816284700,5.56928466796875,-17.740386962890625,-44.96113586425781,7.992027759552002
1771038054835251000,5.5882509765625,-24.918855667114258,-61.35675811767578,0.6269195079803467
1771038054863700200,5.6167001953125,87.04131317138672,-48.229732513427734,-16.357336044311523
1771038054882666800,5.635666748046875,34.01636505126953,-19.807785034179688,-6.417550563812256
1771038054901633000,5.654633056640625,5.824130535125732,-11.772686958312988,-2.3641088008880615
1771038054920599300,5.673599365234375,4.503292083740234,-6.422336101531982,-1.0767701864242554
1771038054939565600,5.692565673828125,5.125426292419434,-2.713460922241211,-1.0049854516983032
1771038054958531800,5.71153173828125,17.391035079956055,2.0003998279571533,-1.454836130142212
1771038054977498000,5.730498046875,8.676374435424805,2.1535403728485107,-2.579462766647339
1771038054996464400,5.74946435546875,-1.4979069232940674,1.526620864868164,-1.0336993932724
1771038055015431000,5.768430908203125,-3.6323046684265137,1.0863415002822876,0.30149564146995544
1771038055034397200,5.787397216796875,-1.6845471858978271,2.469393014907837,2.2301106452941895
1771038055053363500,5.806363525390625,-1.765903115272522,1.9094724655151367,2.1583259105682373
1771038055072329700,5.825329833984375,-2.8426733016967773,-1.1437692642211914,-0.11964113265275955
1771038055091296000,5.8442958984375,-3.6227335929870605,-2.5842485427856445,-0.19142581522464752
1771038055110262300,5.86326220703125,-9.647860527038574,-11.026126861572266,-1.0815558433532715
1771038055129228500,5.882228515625,32.00639724731445,-58.87779235839844,-1.1581261157989502
1771038055148195000,5.901195068359375,-3.436093330383301,-83.71529388427734,5.986842155456543
1771038055167161300,5.920161376953125,-6.173482418060303,-44.86063766479492,-9.116654396057129
1771038055186127600,5.939127685546875,-10.853843688964844,-14.644074440002441,-1.6414763927459717
1771038055205094000,5.958093994140625,-9.604789733886719,-4.1347975730896,-1.2203395366668701
1771038055224060200,5.97706005859375,-7.465606689453125,0.397208571434021,-0.4259224236011505
1771038055243026400,5.9960263671875,-4.981856822967529,1.3591232299804688,0.7130611538887024
1771038055261992700,6.01499267578125,-6.125626087188721,2.589034080505371,0.6699903607368469
1771038055280959200,6.033959228515625,-9.241081237792969,4.192225456237793,0.1818545162677765
1771038055299925500,6.052925537109375,-17.39582061767578,6.604190349578857,-0.1339980661869049
1771038055318891800,6.071891845703125,-4.934000492095947,7.245467185974121,1.7515461444854736
1771038055337858000,6.090858154296875,1.4979069232940674,7.36032247543335,1.9525432586669922
1771038055356824300,6.10982421875,2.8905298709869385,8.461020469665527,3.34995174407959
1771038055375790600,6.12879052734375,48.9810791015625,-2.455035924911499,10.418350219726562
1771038055394757000,6.147757080078125,22.425533294677734,-9.308079719543457,4.575077056884766
1771038055413723400,6.166723388671875,3.5270206928253174,-3.2159535884857178,1.612762451171875
1771038055432689700,6.185689697265625,-7.920242786407471,1.124626636505127,5.158925533294678
1771038055451656000,6.204656005859375,-34.59064483642578,-5.72841739654541,9.834501266479492
1771038055470622200,6.223622314453125,-33.54258728027344,-10.092926025390625,9.590433120727539
1771038055489588700,6.242588623046875,-12.993026733398438,-11.093125343322754,8.154739379882812
1771038055508555000,6.261554931640625,-9.279366493225098,-16.022340774536133,7.762316703796387
1771038055527521300,6.280521240234375,-11.045269012451172,-31.44169044494629,9.987641334533691
1771038055546487600,6.299487548828125,-21.138195037841797,-56.95396423339844,8.508877754211426
1771038055565453800,6.318453857421875,-37.4141731262207,-60.38048553466797,6.211767673492432
1771038055584420000,6.337420166015625,105.39905548095703,-45.62155532836914,-13.318450927734375
1771038055603386600,6.35638671875,27.038896560668945,-21.33440589904785,-4.536791801452637
1771038055622353000,6.375352783203125,0.1339980661869049,-11.155339241027832,-3.1106693744659424
1771038055641319200,6.394319091796875,4.168296813964844,-5.948556900024414,-1.2442678213119507
1771038055660285400,6.413285400390625,14.337793350219727,0.5216353535652161,-0.30628129839897156
1771038055679251700,6.432251708984375,18.424734115600586,2.7182464599609375,-2.0673987865448
1771038055698218000,6.451218017578125,5.819344520568848,1.8089739084243774,-2.60339093208313
1771038055717184500,6.4701845703125,-2.273181438446045,1.0911271572113037,-1.129412293434143
1771038055736150800,6.48915087890625,-1.8807586431503296,1.1772687435150146,0.698704183101654
1771038055755117000,6.508116943359375,-2.761317253112793,1.5361921787261963,1.4691931009292603
1771038055774083300,6.527083251953125,-0.2919243574142456,2.062613010406494,2.7326035499572754
1771038055793049600,6.546049560546875,-2.699103832244873,-0.760917603969574,-0.02392822690308094
1771038055812016000,6.56501611328125,-3.0340991020202637,-2.0961127281188965,-0.2105683982372284
1771038055830982400,6.583982421875,-5.350351333618164,-7.336394309997559,0.014356935396790504
1771038055849948700,6.60294873046875,44.22893524169922,-54.786067962646484,2.0243279933929443
1771038055868915000,6.6219150390625,6.537191390991211,-90.95597076416016,2.091326951980591
1771038055887881200,6.640881103515625,-7.192824840545654,-43.109092712402344,-6.3361945152282715
1771038055906847700,6.65984765625,-12.026326179504395,-13.715659141540527,-1.3256237506866455
1771038055925814000,6.67881396484375,-9.853643417358398,-2.933600664138794,-1.2634103298187256
1771038055944780300,6.6977802734375,-6.455835342407227,1.0767701864242554,-0.9858429431915283
1771038055963746600,6.71674658203125,-6.9344000816345215,2.196611166000366,-0.6652047038078308
1771038055982712800,6.735712890625,-6.652047157287598,3.005385160446167,0.22971096634864807
1771038056001679400,6.754679443359375,-7.968099594116211,4.3788652420043945,0.9236295223236084
1771038056020645600,6.773645751953125,-13.758729934692383,6.173482418060303,1.3782658576965332
1771038056039612000,6.79261181640625,-3.249453067779541,5.704489231109619,2.210968017578125
1771038056058578200,6.811578125,1.4739787578582764,5.240281581878662,1.9142581224441528
1771038056077544400,6.83054443359375,1.94297194480896,6.130411624908447,3.6945180892944336
1771038056096511000,6.849510986328125,56.3701171875,-6.3122663497924805,12.79202938079834
1771038056115477200,6.868477294921875,16.01276969909668,-8.317451477050781,5.31685209274292
1771038056134443500,6.887443603515625,3.469592809677124,-1.2586246728897095,2.139183521270752
1771038056153409800,6.906409912109375,-10.303494453430176,3.139383316040039,4.666004180908203
1771038056172376000,6.9253759765625,-29.273792266845703,-4.823930263519287,8.590232849121094
1771038056191342300,6.94434228515625,-33.064022064208984,-10.336994171142578,12.796815872192383
1771038056210308900,6.963308837890625,-17.58724594116211,-15.577275276184082,12.212966918945312
1771038056229275100,6.982275146484375,-10.62413215637207,-24.933212280273438,10.920842170715332
1771038056248241400,7.001241455078125,-10.327422142028809,-37.49552917480469,12.466606140136719
1771038056267207700,7.020207763671875,-22.171894073486328,-50.407203674316406,8.709874153137207
1771038056286174200,7.03917431640625,-49.6845703125,-46.7078971862793,3.675375461578369
1771038056305140500,7.058140380859375,122.59866333007812,-47.58367156982422,-21.38226318359375
1771038056324106800,7.077106689453125,26.82354164123535,-21.48276138305664,-6.498906135559082
1771038056343073000,7.096072998046875,-0.9475577473640442,-11.504691123962402,-3.9290146827697754
1771038056362039300,7.115039306640625,1.5744773149490356,-6.479763507843018,-2.651247501373291
1771038056381005800,7.134005859375,4.962714195251465,-0.5359922647476196,-2.1343977451324463
1771038056399972000,7.15297216796875,16.749757766723633,3.421736478805542,-3.565305709838867
1771038056418938400,7.1719384765625,6.096911907196045,2.210968017578125,-2.526820659637451
1771038056437904600,7.190904541015625,-0.35413774847984314,1.9046868085861206,-1.430907964706421
1771038056456871000,7.209870849609375,-1.4452649354934692,1.8472590446472168,-0.5168496966362
1771038056475837400,7.22883740234375,-2.943171739578247,1.5074782371520996,-0.46420758962631226
1771038056494803700,7.2478037109375,0.4259224236011505,1.435693621635437,-0.22492532432079315
1771038056513770000,7.26677001953125,-0.9619147181510925,-0.44027936458587646,-0.9427721500396729
1771038056532736300,7.285736328125,-2.943171739578247,-1.9764715433120728,-1.057627558708191
1771038056551702500,7.30470263671875,-7.250252723693848,-6.355337142944336,-0.6556333899497986
1771038056570668800,7.323668701171875,19.640287399291992,-31.5996150970459,-3.1250264644622803
1771038056589635300,7.34263525390625,9.480362892150879,-71.48318481445312,8.063812255859375
1771038056608601600,7.3616015625,-1.612762451171875,-76.61817932128906,9.403793334960938
1771038056627567900,7.38056787109375,-7.829315662384033,-25.129423141479492,6.125626087188721
1771038056656017400,7.409017333984375,-6.642475605010986,-4.962714195251465,-0.0526420995593071
1771038056674983700,7.427983642578125,-6.786045074462891,-0.5742774605751038,-0.7848458290100098
1771038056693950000,7.446949951171875,-7.671389579772949,2.249253273010254,-0.550349235534668
1771038056712916500,7.46591650390625,-6.953542709350586,4.287938117980957,-1.5649060010910034
1771038056731882800,7.4848828125,-9.963713645935059,5.627918720245361,-1.4404792785644531
1771038056750849000,7.50384912109375,-15.036497116088867,6.881757736206055,-0.2153540402650833
1771038056769815300,7.522815185546875,-4.709074974060059,6.1399827003479,1.8759729862213135
1771038056788781600,7.541781494140625,1.5601203441619873,7.183253765106201,2.2923240661621094
1771038056807748000,7.560748046875,9.982855796813965,7.015756130218506,4.886143684387207
1771038056826714400,7.57971435546875,45.08556365966797,-4.8191447257995605,10.96869945526123
1771038056845680600,7.5986806640625,16.41954803466797,-8.226524353027344,4.029513359069824
1771038056864647000,7.61764697265625,-0.6125625967979431,-1.703689694404602,0.9619147181510925
1771038056883613200,7.63661328125,-13.816158294677734,1.8711873292922974,4.508078098297119
1771038056902579700,7.655579833984375,-31.140193939208984,-5.020142078399658,9.633503913879395
1771038056921546000,7.6745458984375,-27.929025650024414,-8.97787094116211,12.275179862976074
1771038056940512300,7.69351220703125,-13.87358570098877,-12.41396427154541,12.524033546447754
1771038056959478500,7.712478515625,-8.279166221618652,-19.86521339416504,11.72004508972168
1771038056978444800,7.73144482421875,-7.747959613800049,-33.35116195678711,16.05583953857422
1771038056997411300,7.750411376953125,-16.88854217529297,-50.46941375732422,17.539390563964844
1771038057016377600,7.769377685546875,-46.77968215942383,-54.752567291259766,11.13619613647461
1771038057035344000,7.78834375,108.90692901611328,-47.51188659667969,-15.572489738464355
1771038057054310100,7.80731005859375,21.406190872192383,-21.477975845336914,-3.871587038040161
1771038057073276400,7.8262763671875,3.445664644241333,-11.868400573730469,-0.7034898400306702
1771038057092243000,7.845242919921875,6.206982135772705,-5.85284423828125,0.3206382393836975
1771038057111209200,7.864209228515625,6.872186660766602,-1.7754744291305542,-0.08614161610603333
1771038057130175500,7.883175537109375,17.35274887084961,2.383251428604126,-1.7467604875564575
1771038057149141800,7.902141845703125,8.982656478881836,1.856830358505249,-2.5459632873535156
1771038057168108000,7.92110791015625,0.9762716293334961,1.3543375730514526,-1.215553879737854
1771038057187074600,7.940074462890625,-2.287538528442383,0.851844847202301,0.6891329288482666
1771038057206040800,7.959040771484375,-2.2683959007263184,1.4165509939193726,1.8616160154342651
1771038057225007000,7.978007080078125,0.062213387340307236,2.053041934967041,3.3068809509277344
1771038057243973400,7.996973388671875,-1.6654045581817627,-0.9619147181510925,0.2727817893028259
1771038057262939600,8.015939697265624,-2.7278177738189697,-2.3162522315979004,-0.44027936458587646
1771038057281906200,8.03490625,-6.8482584953308105,-7.724031448364258,0.349352091550827
1771038057300872400,8.05387255859375,41.00341033935547,-47.97609329223633,7.09711217880249
1771038057319838700,8.072838623046875,13.447663307189941,-88.43872833251953,11.45683479309082
1771038057338805000,8.091804931640626,-7.183253765106201,-55.86762237548828,-7.929814338684082
1771038057357771300,8.110771240234374,-13.146167755126953,-19.377077102661133,-1.3926228284835815
1771038057376737800,8.12973779296875,-10.504491806030273,-5.733202934265137,-0.2632105052471161
1771038057395704000,8.1487041015625,-7.920242786407471,0.4163511395454407,-2.3162522315979004
1771038057414670300,8.16767041015625,-8.183453559875488,3.445664644241333,-1.8233308792114258
1771038057433636600,8.18663671875,-7.09711217880249,5.278566837310791,-0.19621145725250244
1771038057452603000,8.205602783203124,-6.197410583496094,5.848058700561523,-0.44027936458587646
1771038057471569400,8.2245693359375,-13.562519073486328,8.039883613586426,-0.5455635786056519
1771038057490535700,8.24353564453125,-6.857829570770264,9.28893756866455,1.698904037475586
1771038057509502000,8.262501953125,0.6221339106559753,8.81515884399414,1.9286150932312012
1771038057528468200,8.28146826171875,1.9094724655151367,7.618747234344482,2.249253273010254
1771038057547434500,8.3004345703125,47.84688186645508,-3.775874137878418,8.4562349319458
1771038057566401000,8.319401123046875,21.68854522705078,-10.939985275268555,4.843072891235352
1771038057585367300,8.3383671875,1.0001999139785767,-4.986642360687256,3.1345977783203125
1771038057604333600,8.35733349609375,-6.551548480987549,0.8805587291717529,0.2105683982372284
1771038057623299800,8.3762998046875,-20.013568878173828,-3.3643085956573486,12.662817001342773
1771038057642266000,8.39526611328125,-35.332420349121094,-9.42772102355957,11.408978462219238
1771038057661232600,8.414232666015625,-22.7557430267334,-13.060026168823242,11.84447193145752
1771038057680199000,8.433198974609375,-10.04985523223877,-17.553747177124023,10.48534870147705
1771038057699165200,8.452165283203126,-7.805387496948242,-27.378677368164062,10.810772895812988
1771038057718131500,8.47113134765625,-14.979069709777832,-45.58327102661133,13.23709487915039
1771038057737097700,8.49009765625,-17.5011043548584,-53.00102233886719,7.465606689453125
1771038057756064300,8.509064208984375,-0.9906286001205444,-55.49913024902344,1.124626636505127
1771038057775030500,8.528030517578125,59.8444938659668,-27.957738876342773,-11.796615600585938
1771038057793996800,8.546996826171876,11.839686393737793,-14.969498634338379,-5.106283664703369
1771038057812963000,8.565963134765624,4.000799655914307,-8.484949111938477,-2.172683000564575
1771038057831929300,8.584929443359375,7.125825881958008,-2.9766714572906494,-1.0336993932724
1771038057850896000,8.603895751953125,18.104095458984375,2.306680917739868,-1.5170495510101318
1771038057869862100,8.622862060546876,6.599404811859131,1.9669002294540405,-2.210968017578125
1771038057888828400,8.641828369140624,-2.2636101245880127,1.2346965074539185,-1.6319050788879395
1771038057907794700,8.660794677734375,-1.9764715433120728,1.6223337650299072,-0.4307080805301666
1771038057926761000,8.679760986328125,0.9858429431915283,2.0673987865448,0.7992027401924133
1771038057945727200,8.698727294921875,1.9812572002410889,1.9286150932312012,0.9379864931106567
1771038057964693500,8.717693603515626,-3.82373046875,-1.5601203441619873,-0.6843472719192505
1771038057983660000,8.736659912109374,-4.2592244148254395,-2.7517459392547607,-0.8087740540504456
1771038058002626300,8.755626220703125,-0.7034898400306702,-7.982456207275391,-0.8231309652328491
1771038058021592600,8.774592529296875,20.329421997070312,-53.16851806640625,1.7180466651916504
1771038058040558800,8.793558837890625,1.919043779373169,-84.3134994506836,6.9104719161987305
1771038058059525000,8.812525146484376,-1.5361921787261963,-47.40660095214844,2.6799614429473877
1771038058078491600,8.83149169921875,-13.007384300231934,-17.276180267333984,1.8999011516571045
1771038058097458000,8.8504580078125,-9.212367057800293,-6.10169792175293,0.1339980661869049
1771038058116424200,8.869424072265625,-7.733603000640869,-1.852044701576233,-0.5647061467170715
1771038058135390500,8.888390380859375,-8.12123966217041,2.445464849472046,0.5790630578994751
1771038058154356700,8.907356689453126,-8.197810173034668,3.3308091163635254,0
1771038058173323000,8.926322998046874,-10.87298583984375,4.7234320640563965,-1.5840486288070679
1771038058192289300,8.945289306640625,-20.908483505249023,8.260024070739746,-2.00518536567688
1771038058211255800,8.964255859375,-8.169096946716309,9.28893756866455,1.4213366508483887
1771038058230222000,8.98322216796875,1.0480563640594482,11.255837440490723,3.799802303314209
1771038058249188400,9.002188232421876,9.360722541809082,7.661818027496338,5.938985824584961
1771038058268154600,9.021154541015624,58.762939453125,-5.627918720245361,15.491133689880371
1771038058287121000,9.040120849609375,21.70290184020996,-10.715060234069824,5.685346603393555
1771038058306087200,9.059087158203125,-1.0336993932724,-3.1824541091918945,2.5842485427856445
1771038058325053400,9.078053466796876,-12.772887229919434,1.0767701864242554,3.139383316040039
1771038058344020000,9.09702001953125,-32.542388916015625,-9.657432556152344,9.834501266479492
1771038058362986200,9.115986328125,-31.786256790161133,-13.055240631103516,14.06979751586914
1771038058381952500,9.134952392578125,-15.376277923583984,-15.395421028137207,13.208380699157715
1771038058400918800,9.153918701171875,-7.719245910644531,-21.73161506652832,11.978469848632812
1771038058419885000,9.172885009765626,-7.776673793792725,-31.862825393676758,15.309279441833496
1771038058438851300,9.191851318359374,-14.500505447387695,-48.24887466430664,17.347963333129883
1771038058457817600,9.210817626953125,-26.311477661132812,-55.7623405456543,13.878371238708496
1771038058476784000,9.2297841796875,78.89614868164062,-45.71726989746094,-21.36790657043457
1771038058495750400,9.24875048828125,8.997013092041016,-23.784656524658203,-8.585447311401367
1771038058514716700,9.267716552734376,2.56510591506958,-11.10748291015625,-3.3930225372314453
1771038058533683000,9.286682861328124,11.385049819946289,-4.000799655914307,-1.4979069232940674
1771038058552649200,9.305649169921875,13.184453010559082,0.2584248483181,-1.703689694404602
1771038058571615500,9.324615478515625,12.897314071655273,2.407179594039917,-3.077169895172119
1771038058590582000,9.34358203125,7.527820110321045,1.6893328428268433,-3.3786656856536865
1771038058609548300,9.36254833984375,1.3256237506866455,1.2921242713928223,-1.6845471858978271
1771038058628514600,9.3815146484375,-2.2683959007263184,0.8757730722427368,-0.06699903309345245
1771038058647480800,9.400480712890625,-0.5312066078186035,1.3782658576965332,1.1150553226470947
1771038058666447000,9.419447021484375,3.2925238609313965,1.3639088869094849,1.9812572002410889
1771038058685413400,9.438413330078125,-2.00518536567688,-1.4021940231323242,0.17228323221206665
1771038058704379600,9.457379638671876,-3.0484559535980225,-2.3258235454559326,-0.2632105052471161
1771038058723346000,9.476345947265624,-6.096911907196045,-6.10169792175293,-0.19142581522464752
1771038058742312200,9.495312255859375,37.399818420410156,-42.73581314086914,4.048655986785889
1771038058761278500,9.514278564453125,2.3306093215942383,-89.3479995727539,10.293923377990723
1771038058780245000,9.533244873046876,-1.4021940231323242,-61.73960876464844,2.1583259105682373
1771038058799211300,9.552211181640626,-13.9453706741333,-21.013769149780273,4.077369689941406
1771038058818177500,9.571177490234374,-11.399407386779785,-7.245467185974121,1.191625714302063
1771038058837143800,9.590143798828125,-7.073183536529541,-1.7419748306274414,-1.6414763927459717
1771038058856110000,9.609110107421875,-7.542177200317383,2.2061824798583984,-2.210968017578125
1771038058875076400,9.628076416015626,-9.207581520080566,4.900500774383545,-1.94297194480896
1771038058894042600,9.647042724609374,-11.983255386352539,5.8097734451293945,-2.9144580364227295
1771038058913009000,9.6660087890625,-15.285350799560547,8.049455642700195,-3.0484559535980225
1771038058931975200,9.68497509765625,-8.70508861541748,10.236495018005371,1.1054840087890625
1771038058950941700,9.703941650390625,-1.0336993932724,11.040483474731445,2.9288148880004883
1771038058969907700,9.72290771484375,0.7034898400306702,8.762516975402832,4.206582069396973
1771038058988874200,9.741874267578124,36.988250732421875,-3.0005996227264404,10.810772895812988
1771038059007840500,9.760840576171875,25.837697982788086,-11.772686958312988,7.025327205657959
1771038059026806800,9.779806884765625,6.613761901855469,-6.254838466644287,4.517649173736572
1771038059045773000,9.79877294921875,-4.426722049713135,0.04785645380616188,1.1868400573730469
1771038059064739300,9.8177392578125,-22.794029235839844,-2.6273193359375,11.825329780578613
1771038059083705600,9.83670556640625,-38.87379837036133,-9.250652313232422,10.724631309509277
1771038059102672000,9.855671875,-22.703102111816406,-12.906885147094727,11.078768730163574
1771038059121638100,9.87463818359375,-11.758330345153809,-17.816957473754883,10.877771377563477
1771038059140604400,9.8936044921875,-8.073383331298828,-25.808984756469727,11.045269012451172
1771038059159570700,9.91257080078125,-10.595418930053711,-43.36273193359375,16.089340209960938
1771038059178537000,9.931536865234374,-17.625532150268555,-55.00142288208008,11.91625690460205
1771038059197503200,9.950503173828125,16.14198112487793,-56.949180603027344,1.1676974296569824
1771038059216469800,9.9694697265625,49.92863845825195,-29.16372299194336,-10.63370418548584
1771038059235436000,9.98843603515625,4.8813581466674805,-15.409777641296387,-3.9529430866241455
1771038059254402300,10.00740234375,1.2921242713928223,-7.29810905456543,-1.4452649354934692
1771038059273368600,10.02636865234375,8.724231719970703,-2.1056840419769287,-0.7322037220001221
1771038059292334800,10.0453349609375,21.99482536315918,3.2542388439178467,-1.703689694404602
1771038059311301000,10.064301025390625,11.940184593200684,2.234896421432495,-3.3020951747894287
1771038059330267400,10.083267333984375,1.8424733877182007,1.1676974296569824,-2.7900311946868896
1771038059349233700,10.102233642578126,-2.6560330390930176,0.7513462901115417,-1.7611174583435059
1771038059368200000,10.121199951171874,0.5024927258491516,1.2059825658798218,0.35892340540885925
1771038059387166200,10.140166259765625,1.6175481081008911,1.521835207939148,0.9667003750801086
1771038059406132500,10.159132568359375,-2.0003998279571533,-0.9619147181510925,-0.6747759580612183
1771038059425098800,10.1780986328125,-3.3643085956573486,-2.9048867225646973,-1.7084753513336182
1771038059444065000,10.19706494140625,-4.833501815795898,-5.91505765914917,-1.1676974296569824
1771038059463031300,10.21603125,-15.979269981384277,-31.49433135986328,8.666803359985352
1771038059481997600,10.23499755859375,20.405990600585938,-93.82257843017578,7.858029365539551
1771038059500963800,10.2539638671875,-3.6993038654327393,-62.266029357910156,-5.101497650146484
1771038059519930000,10.27293017578125,-12.485748291015625,-21.138195037841797,2.2683959007263184
1771038059538896400,10.291896484375,-11.96889877319336,-8.015955924987793,1.7084753513336182
1771038059557862700,10.310862548828124,-7.929814338684082,-3.326023578643799,-0.22971096634864807
1771038059576829000,10.329828857421875,-8.10688304901123,0.8566305041313171,-0.2919243574142456
1771038059595795500,10.34879541015625,-8.628518104553223,4.091726779937744,-0.6939185857772827
1771038059614761500,10.367761474609376,-9.853643417358398,5.589633464813232,-2.1774685382843018
1771038059633728000,10.38672802734375,-22.24367904663086,7.192824840545654,-4.043870449066162
1771038059652694000,10.405694091796875,-12.016755104064941,10.207781791687012,1.6319050788879395
1771038059671660500,10.42466064453125,-0.2679961323738098,12.251252174377441,3.1680972576141357
1771038059690626600,10.44362646484375,6.805187702178955,12.208181381225586,6.398407936096191
1771038059709593000,10.462593017578126,32.85345458984375,-0.22492532432079315,13.438092231750488
1771038059728559400,10.481559326171874,24.12443733215332,-10.49970531463623,9.384650230407715
1771038059747525400,10.500525390625,7.523034572601318,-6.809973239898682,4.938786029815674
1771038059766492000,10.519491943359375,-1.277767300605774,-0.8470591902732849,0.1579262912273407
1771038059785458000,10.5384580078125,-26.876184463500977,-3.761517286300659,10.810772895812988
1771038059804424400,10.557424560546876,-42.582672119140625,-11.298908233642578,9.18843936920166
1771038059823390700,10.576390625,-22.2149658203125,-14.902499198913574,11.959327697753906
1771038059842357000,10.59535693359375,-12.772887229919434,-21.257837295532227,10.279565811157227
1771038059861323300,10.6143232421875,-8.551948547363281,-30.364919662475586,11.906685829162598
1771038059880289300,10.633289306640625,-12.983455657958984,-43.33401870727539,15.955341339111328
1771038059899255800,10.652255859375,-37.50510025024414,-50.74698257446289,11.040483474731445
1771038059918221800,10.671221923828124,74.69435119628906,-57.86323547363281,-9.714859962463379
1771038059937188400,10.690188232421875,36.30390548706055,-27.105894088745117,-9.226723670959473
1771038059956154600,10.709154541015625,1.5553346872329712,-14.155939102172852,-3.187239646911621
1771038059975120600,10.72812060546875,2.7517459392547607,-7.3986077308654785,-1.8041882514953613
1771038059994087000,10.7470869140625,8.202595710754395,-1.277767300605774,-1.6079767942428589
1771038060013053200,10.76605322265625,18.09930992126465,3.249453067779541,-2.837887763977051
1771038060032019500,10.78501953125,7.800601959228516,2.258824586868286,-2.7326035499572754
1771038060050985700,10.80398583984375,1.5026925802230835,1.4835500717163086,-1.9860427379608154
1771038060069952000,10.822951904296875,-1.7324036359786987,0.8566305041313171,-0.7992027401924133
1771038060088918300,10.841918212890626,-0.641276478767395,1.0863415002822876,0.3445664644241333
1771038060107884500,10.860884521484374,2.234896421432495,1.4787644147872925,0.9475577473640442
1771038060126850800,10.879850830078125,-1.7563318014144897,-0.2967100143432617,-1.0336993932724
1771038060145817000,10.898817138671875,-3.431307554244995,-2.517249345779419,-1.7850457429885864
1771038060164783400,10.917783447265625,-4.527220249176025,-5.335994720458984,-1.277767300605774
1771038060183749600,10.93674951171875,-7.953742504119873,-22.32982063293457,0.6508477330207825
1771038060202716000,10.9557158203125,13.064811706542969,-86.63932037353516,2.9383862018585205
1771038060221682200,10.97468212890625,-2.3880369663238525,-78.8865737915039,1.5170495510101318
1771038060240648400,10.9936484375,-11.466405868530273,-25.847270965576172,3.2303106784820557
1771038060259614700,11.01261474609375,-11.461620330810547,-8.796015739440918,2.6368906497955322
1771038060278581000,11.0315810546875,-9.236295700073242,-2.8522446155548096,1.2011969089508057
1771038060297547300,11.05054736328125,-7.1162543296813965,1.4261223077774048,-0.8327022790908813
1771038060316513500,11.069513427734375,-6.967899322509766,3.5365917682647705,-2.7326035499572754
1771038060335479800,11.088479736328125,-12.375679016113281,5.1876397132873535,-4.4410786628723145
1771038060354446000,11.107446044921875,-23.13381004333496,8.35573673248291,-3.517449378967285
1771038060373412000,11.126412109375,-8.662017822265625,10.767702102661133,1.703689694404602
1771038060392378400,11.14537841796875,-0.17706887423992157,14.443077087402344,4.666004180908203
1771038060411344600,11.1643447265625,1.430907964706421,12.059825897216797,6.819544315338135
1771038060430311000,11.183310791015625,38.682369232177734,-1.057627558708191,12.973884582519531
1771038060449277200,11.202277099609375,20.496919631958008,-7.800601959228516,8.2695951461792
1771038060468243500,11.221243408203126,11.337193489074707,-7.499105930328369,3.6849467754364014
1771038060487209700,11.240209716796874,3.2207393646240234,-1.8233308792114258,2.392822742462158
1771038060506176000,11.259176025390625,-5.714060306549072,-1.6893328428268433,8.772088050842285
1771038060525142300,11.278142333984375,-37.57688522338867,-8.283951759338379,8.738588333129883
1771038060544108500,11.297108642578126,-33.22673416137695,-14.687145233154297,11.796615600585938
1771038060563074800,11.31607470703125,-17.20918083190918,-19.640287399291992,10.470992088317871
1771038060582040800,11.335040771484374,-10.815558433532715,-25.694129943847656,9.040083885192871
1771038060601007000,11.354007080078125,-16.01276969909668,-39.04608154296875,11.935399055480957
1771038060619973400,11.372973388671875,-19.841285705566406,-52.76652526855469,5.31685209274292
1771038060638939600,11.391939697265625,-8.059026718139648,-60.91647720336914,-0.8039883971214294
1771038060657906000,11.410906005859376,81.10711669921875,-32.73381423950195,-13.39980697631836
1771038060676872200,11.4298720703125,10.375279426574707,-19.051654815673828,-6.350551128387451
1771038060695838500,11.44883837890625,-0.1866401731967926,-9.973284721374512,-2.9240293502807617
1771038060714804700,11.4678046875,1.7180466651916504,-4.555934429168701,-1.9046868085861206
1771038060733771000,11.48677099609375,21.415761947631836,3.8907296657562256,-2.2636101245880127
1771038060752737300,11.5057373046875,12.519248008728027,2.4837498664855957,-2.4358935356140137
1771038060771703300,11.524703369140624,0.35892340540885925,1.2634103298187256,-1.5744773149490356
1771038060790669600,11.543669677734375,-1.7276179790496826,0.727418065071106,0.038285162299871445
1771038060809635800,11.5626357421875,-1.1150553226470947,0.727418065071106,0.6029912829399109
1771038060828602000,11.58160205078125,0.9332008361816406,1.3399807214736938,1.4213366508483887
1771038060847568400,11.600568359375,-0.6269195079803467,-0.8662018179893494,0
1771038060866534700,11.61953466796875,-2.311466693878174,-2.014756679534912,-1.1102696657180786
1771038060885501000,11.6385009765625,-5.623133182525635,-6.474977970123291,-0.7704889178276062
1771038060904467000,11.657467041015625,33.896724700927734,-41.75954055786133,-0.6604190468788147
1771038060923433200,11.67643310546875,9.274580955505371,-89.3336410522461,-3.0388846397399902
1771038060942399500,11.6953994140625,-6.561119556427002,-59.78706741333008,-8.413164138793945
1771038060961365800,11.71436572265625,-13.462019920349121,-21.142980575561523,-1.588834285736084
1771038060980332000,11.73333203125,-10.686346054077148,-6.57547664642334,-1.1102696657180786
1771038060999298300,11.75229833984375,-8.556734085083008,-0.4019941985607147,-0.794417142868042
1771038061018264300,11.771264404296875,-7.6474609375,2.809173822402954,-0.062213387340307236
1771038061037230600,11.790230712890626,-7.623532772064209,4.565505504608154,-1.1485549211502075
1771038061056196900,11.80919677734375,-13.801800727844238,6.671189308166504,-1.5409778356552124
1771038061075163100,11.8281630859375,-16.788043975830078,9.221938133239746,-0.5455635786056519
1771038061094129400,11.84712939453125,-4.977071285247803,10.370492935180664,2.6081767082214355
1771038061113095700,11.866095703125,1.612762451171875,11.68175983428955,3.9290146827697754
1771038061132062000,11.88506201171875,5.838487148284912,7.355536937713623,6.498906135559082
1771038061151028000,11.904028076171874,49.98128128051758,-7.781459331512451,12.423535346984863
1771038061169994200,11.922994140625,23.31087875366211,-11.873186111450195,5.288137912750244
1771038061188960500,11.94196044921875,6.393621921539307,-4.622933387756348,2.282752752304077
1771038061207926800,11.9609267578125,-11.040483474731445,-0.794417142868042,6.642475605010986
1771038061226893000,11.97989306640625,-37.73959732055664,-6.3122663497924805,5.532206058502197
1771038061245859000,11.998859130859374,-33.470802307128906,-10.356136322021484,6.896114826202393
1771038061264825300,12.017825439453125,-14.868999481201172,-11.858829498291016,6.556334018707275
1771038061283791600,12.03679150390625,-9.973284721374512,-19.262222290039062,5.982056617736816
1771038061302758000,12.0557578125,-11.988041877746582,-34.46143341064453,8.346165657043457
1771038061321724200,12.07472412109375,-26.105695724487305,-55.542198181152344,5.733202934265137
1771038061340690200,12.093690185546874,-43.602012634277344,-54.594642639160156,2.7421748638153076
1771038061359656400,12.112656494140625,141.53067016601562,-43.03252410888672,-11.097911834716797
1771038061378622700,12.131622802734375,31.929824829101562,-20.13799476623535,-5.670989513397217
1771038061397589000,12.150589111328125,5.402993679046631,-11.743973731994629,-3.8907296657562256
1771038061416555300,12.16955517578125,0.46420758962631226,-7.63310432434082,-2.7565317153930664
1771038061435521500,12.188521484375,0.8949156403541565,-1.5649060010910034,-1.6701902151107788
1771038061454487600,12.207487548828125,17.414962768554688,3.1585259437561035,-3.0245277881622314
1771038061473453800,12.226453857421875,5.139782905578613,2.1296122074127197,-1.6941183805465698
1771038061492420000,12.245420166015625,-2.4837498664855957,0.7704889178276062,-0.5264210104942322
1771038061511386400,12.264386474609376,-2.555534601211548,0.7848458290100098,0.4498506486415863
1771038061530352400,12.283352294921874,-2.9240293502807617,1.191625714302063,0.7369893789291382
1771038061549318700,12.302318603515625,0.31106695532798767,1.277767300605774,1.2442678213119507
1771038061568285000,12.321284912109375,-1.612762451171875,-0.9762716293334961,-0.6029912829399109
1771038061587251200,12.340251220703125,-1.0336993932724,-3.627519130706787,-0.4019941985607147
1771038061606217200,12.35921728515625,-13.787444114685059,-19.26700782775879,-2.2923240661621094
1771038061625183500,12.37818359375,31.283763885498047,-84.95956420898438,-12.256037712097168
1771038061644149800,12.397149658203125,-10.336994171142578,-72.09574890136719,-3.3930225372314453
1771038061663116000,12.416115966796875,-12.42832088470459,-28.78087043762207,-6.159125328063965
1771038061682082000,12.43508203125,-13.203595161437988,-7.81974458694458,-2.2396819591522217
1771038061701048300,12.45404833984375,-8.671588897705078,-1.6366907358169556,-1.100698471069336
1771038061720014600,12.4730146484375,-7.953742504119873,2.4263222217559814,0.6556333899497986
1771038061738980900,12.49198095703125,-6.197410583496094,3.9050865173339844,0.11485548317432404
1771038061757947000,12.51094677734375,-8.901300430297852,5.8337016105651855,-0.8422735929489136
1771038061776913200,12.5299130859375,-15.625131607055664,9.169296264648438,0.17228323221206665
1771038061795879400,12.54887939453125,-10.001998901367188,11.073983192443848,2.321038007736206
1771038061814845700,12.567845703125,-0.23449662327766418,11.676974296569824,3.6610186100006104
1771038061833811700,12.586811767578125,2.1822543144226074,8.714659690856934,4.278367042541504
1771038061852778000,12.605778076171875,30.714271545410156,-4.560719966888428,9.016156196594238
1771038061871744300,12.624744140625,22.219751358032227,-11.423335075378418,6.307480335235596
1771038061890710500,12.64371044921875,12.083754539489746,-9.049654960632324,3.78544545173645
1771038061909676500,12.662676513671874,1.7563318014144897,-1.5553346872329712,1.1581261157989502
1771038061928642800,12.681642822265625,-10.528419494628906,1.435693621635437,7.489534854888916
1771038061947609000,12.700609130859375,-38.40958786010742,-4.7712883949279785,7.8388872146606445
1771038061966575000,12.7195751953125,-30.59463119506836,-11.20798110961914,7.982456207275391
1771038061985541400,12.738541259765626,-15.227923393249512,-17.056039810180664,6.565905570983887
1771038062004507600,12.757507568359374,-8.279166221618652,-24.82792854309082,6.4510498046875
1771038062023474000,12.776473876953125,-21.521047592163086,-40.00320816040039,7.642675399780273
1771038062042440000,12.79543994140625,-24.004796981811523,-55.36513137817383,-1.0241280794143677
1771038062061406200,12.81440625,-19.13779640197754,-51.93382263183594,-5.72841739654541
1771038062080372500,12.83337255859375,115.70732879638672,-33.738800048828125,-16.591833114624023
1771038062099338500,12.85233837890625,24.263221740722656,-18.2045955657959,-7.470392227172852
1771038062118304800,12.8713046875,4.924428939819336,-10.475777626037598,-4.675575256347656
1771038062137271000,12.89027099609375,-0.7848458290100098,-5.828916072845459,-3.129812002182007
1771038062156237000,12.909237060546875,8.470592498779297,0.7800601720809937,-2.1678972244262695
1771038062175203300,12.928203369140626,15.199209213256836,3.2685956954956055,-2.335394859313965
1771038062194169600,12.947169677734376,-0.12921242415905,2.1343977451324463,-1.2681959867477417
1771038062213136000,12.966135986328124,-4.335794448852539,1.8855443000793457,-0.5312066078186035
1771038062232102000,12.985101806640625,-3.9385859966278076,2.1104695796966553,0.3924229145050049
1771038062251068200,13.004068115234375,2.7182464599609375,2.0195422172546387,0.5407779216766357
1771038062270034400,13.023034423828125,-1.7754744291305542,-1.2442678213119507,-1.038485050201416
1771038062289000400,13.04200048828125,-4.48414945602417,-2.589034080505371,-1.9812572002410889
1771038062307966700,13.060966796875,18.898513793945312,-12.016755104064941,-3.8428730964660645
1771038062326933000,13.07993310546875,20.75534439086914,-56.389259338378906,-6.3601226806640625
1771038062345899000,13.09889892578125,-6.417550563812256,-83.79664611816406,-4.192225456237793
1771038062364865300,13.117865234375,-5.201996326446533,-47.96173858642578,-4.187439441680908
1771038062383831600,13.13683154296875,-15.783058166503906,-16.855043411254883,-2.1200408935546875
1771038062402797600,13.155797607421874,-10.695917129516602,-5.584847927093506,-1.9764715433120728
1771038062421763800,13.174763916015625,-7.929814338684082,-0.5647061467170715,-1.9716858863830566
1771038062440729900,13.193729736328125,-5.465207099914551,1.7276179790496826,-0.6891329288482666
1771038062459696000,13.212696044921875,-7.5326056480407715,3.16331148147583,-1.8089739084243774
1771038062478662400,13.231662353515626,-20.889341354370117,6.747759819030762,-1.2394821643829346
1771038062497628400,13.25062841796875,-18.836299896240234,10.045069694519043,2.0817556381225586
1771038062516594700,13.2695947265625,-3.627519130706787,12.356535911560059,3.957728624343872
1771038062535561000,13.28856103515625,4.9435715675354,12.921242713928223,6.116054534912109
1771038062554527000,13.30752685546875,12.471391677856445,2.4119651317596436,9.90149974822998
1771038062573493200,13.3264931640625,28.321449279785156,-8.987442016601562,8.609375953674316
1771038062592459500,13.34545947265625,16.74018669128418,-11.753544807434082,7.412964344024658
1771038062611425500,13.364425537109375,7.345965385437012,-5.312066078186035,3.005385160446167
1771038062630391800,13.383391845703125,-4.551148891448975,-2.249253273010254,6.719046115875244
1771038062649358000,13.402358154296875,-33.274593353271484,-6.876972198486328,10.317851066589355
1771038062668324000,13.421323974609376,-38.46223068237305,-11.48076343536377,11.868400573730469
1771038062687290400,13.440290283203124,-21.24826431274414,-16.81197166442871,8.805587768554688
1771038062706256400,13.45925634765625,-12.969099044799805,-22.353748321533203,6.422336101531982
1771038062725222700,13.47822265625,-14.136795997619629,-33.997222900390625,6.666403770446777
1771038062744189000,13.49718896484375,-22.44467544555664,-52.00082015991211,0.04307080805301666
1771038062763155000,13.516155029296876,-19.549360275268555,-56.09733581542969,-3.2781670093536377
1771038062782121200,13.535121337890626,101.1015396118164,-37.87359619140625,-18.979869842529297
1771038062801087500,13.55408740234375,20.836700439453125,-19.692930221557617,-8.475378036499023
1771038062820053500,13.573053466796875,2.785245656967163,-10.514062881469727,-5.158925533294678
1771038062839019800,13.592019775390625,2.3545374870300293,-4.785645484924316,-3.641875982284546
1771038062857985800,13.61098583984375,16.208980560302734,1.5649060010910034,-3.273381471633911
1771038062876952000,13.6299521484375,8.930013656616211,2.3880369663238525,-3.273381471633911
1771038062895918000,13.64891796875,-0.9906286001205444,1.789831280708313,-2.2301106452941895
1771038062914884400,13.66788427734375,-1.8951154947280884,1.3830515146255493,-1.1485549211502075
1771038062933850600,13.6868505859375,-3.2207393646240234,1.521835207939148,-0.5216353535652161
1771038062952816600,13.705816650390625,6.489335060119629,1.703689694404602,-1.0241280794143677
1771038062971783000,13.724782958984376,-3.3930225372314453,-1.7994025945663452,-1.6701902151107788
1771038062990749000,13.7437490234375,-5.675775527954102,-3.28773832321167,-2.66560435295105
1771038063009715200,13.762715087890625,-6.9822564125061035,-10.542776107788086,-4.067798614501953
1771038063028681500,13.781681396484375,22.971097946166992,-54.30271530151367,-6.561119556427002
1771038063047647500,13.8006474609375,0.1339980661869049,-83.629150390625,-0.43549370765686035
1771038063066613800,13.81961376953125,-4.73300313949585,-45.55934143066406,2.713460922241211
1771038063085579800,13.838579833984374,-12.734601974487305,-17.01775550842285,1.2394821643829346
1771038063104546000,13.857546142578125,-9.006584167480469,-6.16391134262085,0
1771038063123512000,13.876511962890625,-9.456435203552246,-1.5984054803848267,-0.23449662327766418
1771038063142478300,13.895478271484375,-6.168696880340576,1.5122638940811157,0.04785645380616188
1771038063161444600,13.914444580078126,-7.8628153800964355,2.5698914527893066,-2.0099709033966064
1771038063180410600,13.93341064453125,-16.4913330078125,4.622933387756348,-2.9527430534362793
1771038063199377000,13.952376953125,-20.740985870361328,7.479963779449463,1.0432707071304321
1771038063218343000,13.971343017578125,-6.3361945152282715,7.676175117492676,3.8524444103240967
1771038063237309200,13.99030908203125,0.8709874153137207,7.441678524017334,3.541377544403076
1771038063256275200,14.009275146484375,1.3543375730514526,6.738188743591309,7.197610378265381
1771038063275241500,14.028241455078126,39.050865173339844,-4.163511276245117,13.270594596862793
1771038063294207700,14.047207763671874,16.17548179626465,-9.547362327575684,10.920842170715332
1771038063313173800,14.066173828125,12.993026733398438,-8.374878883361816,7.752745151519775
1771038063332140000,14.08514013671875,5.292923450469971,-1.94297194480896,3.0963125228881836
1771038063351106000,14.10410595703125,-2.2444677352905273,-3.311666488647461,11.84447193145752
1771038063370072300,14.123072265625,-37.256248474121094,-7.81974458694458,13.103096961975098
1771038063389038300,14.142038330078124,-34.22693634033203,-10.63370418548584,9.45164966583252
1771038063408004600,14.161004638671875,-19.927427291870117,-16.54876136779785,4.886143684387207
1771038063426970600,14.179970703125,-14.892928123474121,-26.483760833740234,3.187239646911621
1771038063445937000,14.19893701171875,-18.71187400817871,-41.91746520996094,5.929414749145508
1771038063464903000,14.21790283203125,-20.568702697753906,-52.38367462158203,0.02871387079358101
1771038063483869200,14.236869140625,-29.388647079467773,-43.003807067871094,-4.364508628845215
1771038063502835200,14.255835205078125,90.0371322631836,-29.604001998901367,-16.04148292541504
1771038063521801500,14.274801513671875,24.617359161376953,-18.702301025390625,-6.943971157073975
1771038063540767500,14.293767578125,1.4021940231323242,-10.418350219726562,-3.5461630821228027
1771038063559733800,14.312733642578126,0.22492532432079315,-3.531806230545044,-2.8187451362609863
1771038063578699800,14.33169970703125,23.37787628173828,3.005385160446167,-3.311666488647461
1771038063597666000,14.350666015625,2.775674343109131,2.3401806354522705,-1.7084753513336182
1771038063616632000,14.369632080078125,-4.235296249389648,1.2873386144638062,-0.760917603969574
1771038063635598300,14.388598388671875,-3.871587038040161,1.28255295753479,0.2727817893028259
1771038063654564400,14.407564453125,-2.5698914527893066,1.397408366203308,0.24406790733337402
1771038063673530600,14.426530517578126,4.6372904777526855,-0.31106695532798767,0.48813581466674805
1771038063692496600,14.44549658203125,-3.129812002182007,-1.6175481081008911,-0.8374879360198975
1771038063711463000,14.464462890625,-3.249453067779541,-4.082155227661133,-1.6319050788879395
1771038063730429000,14.483428955078125,35.04049301147461,-39.30929183959961,-6.245266914367676
1771038063749395200,14.502395263671875,8.417949676513672,-90.63533782958984,-1.3112667798995972
1771038063768361200,14.521361328125,-4.211368083953857,-65.52027130126953,3.067598581314087
1771038063787327500,14.540327392578124,-15.26620864868164,-21.93739891052246,5.044070243835449
1771038063806293500,14.55929345703125,-11.413763999938965,-7.671389579772949,1.8807586431503296
1771038063825259800,14.578259765625,-8.030312538146973,-1.7276179790496826,-0.698704183101654
1771038063844225800,14.597225830078125,-6.618547439575195,1.9716858863830566,-2.0865414142608643
1771038063863192000,14.616192138671876,-6.690331935882568,4.07258415222168,-1.9621145725250244
1771038063882158000,14.635157958984376,-14.266008377075195,4.713860511779785,-4.340580463409424
1771038063901124400,14.654124267578124,-25.311277389526367,7.503891944885254,-3.589233875274658
1771038063920090400,14.67309033203125,-6.69990348815918,7.302894592285156,1.0767701864242554
1771038063939056600,14.692056640625,1.153340458869934,6.714260101318359,2.287538528442383
1771038063958022700,14.711022705078125,5.97727108001709,5.383851051330566,3.9194436073303223
1771038063976988700,14.72998876953125,41.05604934692383,-1.7371892929077148,9.035298347473145
1771038063995955000,14.748954833984374,15.663416862487793,-6.757331371307373,9.45164966583252
1771038064014921000,14.7679208984375,4.938786029815674,-5.288137912750244,6.666403770446777
1771038064033887200,14.78688720703125,1.5409778356552124,-1.852044701576233,3.4887354373931885
1771038064052853200,14.805853271484375,-5.2737812995910645,-2.0338993072509766,8.547162055969238
1771038064071819500,14.824819580078126,-31.15933609008789,-8.173882484436035,10.48534870147705
1771038064090785500,14.84378564453125,-32.58067321777344,-14.20858097076416,8.537590980529785
1771038064109751800,14.862751708984375,-16.725830078125,-21.511476516723633,6.226124286651611
1771038064128717800,14.8817177734375,-8.542376518249512,-24.004796981811523,7.025327205657959
1771038064147683800,14.900683837890625,-15.77827262878418,-31.838897705078125,8.059026718139648
1771038064166650000,14.919650146484376,-22.109682083129883,-45.736412048339844,3.6610186100006104
1771038064185616100,14.9386162109375,-44.70271301269531,-43.6115837097168,-1.679761528968811
1771038064204582400,14.95758251953125,124.7234878540039,-44.200218200683594,-24.15793800354004
1771038064223548400,14.97654833984375,29.173294067382812,-24.019153594970703,-15.270994186401367
1771038064242514400,14.995514404296875,2.1104695796966553,-12.77767276763916,-6.891329288482666
1771038064261480700,15.014480712890625,-2.6225335597991943,-5.714060306549072,-4.599005222320557
1771038064280446700,15.03344677734375,4.780859470367432,1.3208380937576294,-3.211168050765991
1771038064299413000,15.0524130859375,9.915857315063477,4.3549370765686035,-3.1680972576141357
1771038064318379000,15.07137890625,-2.0578274726867676,2.837887763977051,-1.770688772201538
1771038064337345300,15.09034521484375,-3.838087558746338,2.407179594039917,-1.124626636505127
1771038064356311300,15.109311279296875,3.6131622791290283,3.1202406883239746,-0.9044869542121887
1771038064375277300,15.12827734375,2.306680917739868,2.5746772289276123,-1.2346965074539185
1771038064394243600,15.14724365234375,-5.465207099914551,-1.4021940231323242,-1.430907964706421
1771038064413209600,15.166209716796875,-4.374079704284668,-2.809173822402954,-0.9810572862625122
1771038064432175900,15.18517578125,14.47179126739502,-13.318450927734375,-3.211168050765991
1771038064451142000,15.204141845703125,5.230710506439209,-42.276390075683594,-9.504291534423828
1771038064470108000,15.22310791015625,2.6368906497955322,-81.53782653808594,-6.51326322555542
1771038064489074200,15.24207421875,-4.900500774383545,-60.75855255126953,2.981456995010376
1771038064508040200,15.261040283203124,-10.092926025390625,-18.72623062133789,4.48414945602417
1771038064527006200,15.280006103515625,-7.389036178588867,-6.211767673492432,0.550349235534668
1771038064545972500,15.298972412109375,-8.446663856506348,-2.8426733016967773,0.8614161610603333
1771038064564938500,15.3179384765625,-7.365108013153076,-0.014356935396790504,0.062213387340307236
1771038064583904800,15.33690478515625,-8.915657043457031,1.550549030303955,-1.8185452222824097
1771038064602870800,15.355870849609374,-17.82174301147461,4.398007869720459,-2.7326035499572754
1771038064621836800,15.3748369140625,-23.13381004333496,8.226524353027344,1.1150553226470947
1771038064640803000,15.393802978515625,-6.915257453918457,8.513663291931152,3.8045880794525146
1771038064659769000,15.41276904296875,-1.5936198234558105,5.106283664703369,4.192225456237793
1771038064678735000,15.431735107421876,5.120640277862549,6.230910301208496,6.795616149902344
1771038064697701400,15.450701416015624,37.61517333984375,-2.770888566970825,19.7742862701416
1771038064716667400,15.46966748046875,16.65404510498047,-9.695717811584473,16.371692657470703
1771038064735633700,15.488633544921875,9.34157943725586,-7.226324558258057,13.021740913391113
1771038064754599700,15.507599609375,8.212167739868164,1.0719845294952393,4.3788652420043945
1771038064773565700,15.526565673828125,-7.69531774520874,0.3206382393836975,13.395021438598633
1771038064792532000,15.545531982421876,-21.808185577392578,-2.737389087677002,10.987841606140137
1771038064811498000,15.564498046875,-36.055049896240234,-8.652446746826172,10.236495018005371
1771038064830464000,15.583464111328125,-32.073394775390625,-18.05624008178711,9.001798629760742
1771038064849430300,15.60243017578125,-23.818157196044922,-33.93500900268555,4.6995038986206055
1771038064868396300,15.621396240234375,-26.134408950805664,-47.14817810058594,1.1820544004440308
1771038064887362300,15.6403623046875,-17.2666072845459,-59.82056427001953,-10.140782356262207
1771038064906328600,15.65932861328125,0.9667003750801086,-57.93023681640625,-12.490533828735352
1771038064925294600,15.678294677734375,62.500526428222656,-26.904897689819336,-11.710474014282227
1771038064944260600,15.697260498046875,13.342378616333008,-16.04148292541504,-5.101497650146484
1771038064963227000,15.716226806640625,1.7276179790496826,-9.432506561279297,-2.9766714572906494
1771038064982193000,15.73519287109375,3.3164522647857666,-2.4646072387695312,-1.674975872039795
1771038065001159000,15.754158935546876,19.817358016967773,4.115654945373535,-1.550549030303955
1771038065020125200,15.773125244140624,3.1824541091918945,3.2685956954956055,-0.45942193269729614
1771038065039091200,15.79209130859375,-4.8574299812316895,1.7563318014144897,-0.24885354936122894
1771038065058057200,15.81105712890625,-3.862015724182129,1.4931213855743408,-0.1818545162677765
1771038065077023500,15.8300234375,-0.7322037220001221,1.852044701576233,0.2584248483181
1771038065095989500,15.848989501953126,4.321437835693359,0.8709874153137207,0.35413774847984314
1771038065114955500,15.86795556640625,-2.368894338607788,-1.038485050201416,-0.6747759580612183
1771038065133921800,15.886921875,-2.861815929412842,-3.5126636028289795,-1.0671988725662231
1771038065152887800,15.9058876953125,35.499916076660156,-34.07857894897461,-8.676374435424805
1771038065171853800,15.924853759765625,-0.7896314859390259,-80.28877258300781,-3.775874137878418
1771038065190819800,15.94381982421875,-2.3880369663238525,-72.99066162109375,-9.499505996704102
1771038065209786000,15.9627861328125,-10.619346618652344,-25.60320281982422,-1.9286150932312012
1771038065228752100,15.981752197265624,-15.457633972167969,-9.126225471496582,0.5551348328590393
1771038065247718100,16.00071826171875,-10.456634521484375,-3.2350962162017822,-0.22013968229293823
1771038065266684400,16.019684326171873,-7.17368221282959,0.22971096634864807,0.6317051649093628
1771038065285650400,16.038650390625,-7.231110095977783,2.2636101245880127,1.1437692642211914
1771038065304616400,16.057616455078126,-8.958727836608887,4.713860511779785,1.0289137363433838
1771038065323582700,16.076582763671876,-14.93121337890625,6.872186660766602,2.0721843242645264
1771038065342548700,16.095548828125,-15.538990020751953,9.710074424743652,4.01037073135376
1771038065361514800,16.1145146484375,-3.8763725757598877,11.274980545043945,4.364508628845215
1771038065380481000,16.13348095703125,2.6799614429473877,10.490134239196777,5.000999450683594
1771038065399447000,16.152447021484374,3.981656789779663,3.1345977783203125,7.456035137176514
1771038065418413000,16.1714130859375,38.581871032714844,-10.805987358093262,10.77248764038086
1771038065437379000,16.190379150390626,22.085752487182617,-10.695917129516602,5.010570526123047
1771038065456345300,16.209345458984377,8.10688304901123,-2.9144580364227295,0.5407779216766357
1771038065475311400,16.228311279296875,-5.201996326446533,0.6317051649093628,6.819544315338135
1771038065494277400,16.24727734375,-31.40818977355957,-4.694717884063721,10.351350784301758
1771038065513243400,16.266243408203124,-36.86861038208008,-11.849257469177246,11.394621849060059
1771038065532209700,16.285209716796874,-18.884157180786133,-18.276378631591797,7.6043901443481445
1771038065551175700,16.30417578125,-10.073782920837402,-26.947969436645508,6.809973239898682
1771038065570141700,16.3231416015625,-16.218551635742188,-40.38127517700195,10.116853713989258
1771038065589107700,16.342107666015625,-25.612773895263672,-55.87240982055664,0.45942193269729614
1771038065608074000,16.361073974609376,-14.10808277130127,-58.212589263916016,-5.2115678787231445
1771038065627040000,16.3800400390625,85.98368835449219,-32.04946517944336,-15.806986808776855
1771038065646006000,16.399006103515624,10.155138969421387,-18.501304626464844,-6.235695838928223
1771038065664972000,16.417971923828127,-0.6317051649093628,-8.93958568572998,-3.067598581314087
1771038065683938300,16.436938232421873,0.349352091550827,-3.6945180892944336,-1.7467604875564575
1771038065702904300,16.455904296875,26.397619247436523,4.728217601776123,-2.9288148880004883
1771038065721870300,16.474870361328126,13.509876251220703,3.1728827953338623,-2.6081767082214355
1771038065740836400,16.49383642578125,1.397408366203308,2.196611166000366,-0.8470591902732849
1771038065759802600,16.512802734375,-2.9288148880004883,1.129412293434143,0.6460621356964111
1771038065778768600,16.5317685546875,-5.647061347961426,1.947757601737976,2.0338993072509766
1771038065797734700,16.550734619140623,-0.43549370765686035,2.210968017578125,1.8472590446472168
1771038065816701000,16.569700927734374,-0.6699903607368469,-0.8662018179893494,-0.14835500717163086
1771038065835667000,16.5886669921875,-3.555734395980835,-1.674975872039795,-0.7800601720809937
1771038065854633000,16.607633056640626,-3.9672999382019043,-5.647061347961426,-2.043470621109009
1771038065873599000,16.626598876953125,42.678382873535156,-44.60221481323242,-11.227124214172363
1771038065892565000,16.64556494140625,-1.0671988725662231,-80.44190979003906,-2.4119651317596436
1771038065911531300,16.66453125,-6.192625045776367,-65.31927490234375,-7.905886173248291
1771038065930497300,16.683497314453124,-13.792229652404785,-21.970897674560547,-0.7130611538887024
1771038065949463300,16.70246337890625,-12.600604057312012,-5.575276851654053,0.5264210104942322
1771038065968429300,16.72142919921875,-8.21695327758789,-0.02392822690308094,-0.48813581466674805
1771038065987395300,16.740395263671875,-4.311866283416748,2.60339093208313,-0.3732803463935852
1771038066006361600,16.759361572265625,-4.42193603515625,3.2829527854919434,-0.5647061467170715
1771038066025327600,16.77832763671875,-7.776673793792725,4.2209391593933105,-1.6510475873947144
1771038066044293600,16.797293701171874,-14.79242992401123,6.8865437507629395,-0.6221339106559753
1771038066063259600,16.816259765625,-10.628918647766113,8.260024070739746,2.7038896083831787
1771038066082226000,16.835225830078127,-1.6510475873947144,8.082955360412598,3.2781670093536377
1771038066101192000,16.85419189453125,1.674975872039795,7.192824840545654,4.59421968460083
1771038066120158000,16.873157958984375,14.68235969543457,-2.100898265838623,9.92542839050293
1771038066139124000,16.8921240234375,21.305692672729492,-9.422935485839844,9.863214492797852
1771038066158090000,16.911090087890624,11.676974296569824,-6.98704195022583,6.876972198486328
1771038066177056300,16.93005615234375,7.77188777923584,-2.2301106452941895,2.9958138465881348
1771038066196022300,16.949022216796877,-2.2444677352905273,-1.301695466041565,9.126225471496582
1771038066214988300,16.96798828125,-23.19123649597168,-4.264009952545166,9.609575271606445
1771038066233954300,16.986954345703126,-31.537403106689453,-9.21715259552002,8.049455642700195
1771038066252920300,17.00592041015625,-19.664216995239258,-14.400006294250488,6.025127410888672
1771038066271886600,17.024886474609374,-15.649060249328613,-24.832714080810547,5.335994720458984
1771038066290852600,17.0438525390625,-21.85125732421875,-41.37668991088867,5.20678186416626
1771038066309818600,17.062818603515623,-25.335206985473633,-55.613983154296875,-2.3784656524658203
1771038066328784600,17.08178466796875,-26.60818862915039,-46.55954360961914,-4.393222332000732
1771038066347750700,17.100750732421876,128.3653564453125,-35.399417877197266,-14.658431053161621
1771038066366716700,17.119716552734374,25.866413116455078,-19.798213958740234,-6.786045074462891
1771038066385683000,17.138682861328125,3.0963125228881836,-11.547761917114258,-4.417150497436523
1771038066404649000,17.15764892578125,0.1052841991186142,-6.728617191314697,-2.6703901290893555
1771038066423615000,17.176614990234373,19.65943145751953,2.014756679534912,-3.0628130435943604
1771038066442581000,17.1955810546875,13.170095443725586,2.823530673980713,-2.2301106452941895
1771038066461547000,17.214547119140626,-1.459621787071228,1.612762451171875,-0.9427721500396729
1771038066480513000,17.233512939453124,-3.541377544403076,0.7800601720809937,0.16271193325519562
1771038066499479300,17.252479248046875,-4.9435715675354,1.5601203441619873,1.3591232299804688
1771038066518445300,17.2714453125,-0.8901300430297852,2.00518536567688,1.459621787071228
1771038066537411300,17.290411376953124,-0.6795616149902344,-0.6269195079803467,0.11485548317432404
1771038066556377300,17.30937744140625,-2.7326035499572754,-1.3782658576965332,-0.9092726111412048
1771038066575343400,17.32834326171875,-3.1680972576141357,-4.8813581466674805,-1.1868400573730469
1771038066603792600,17.356792724609374,29.04408073425293,-72.60302734375,-4.225724697113037
1771038066622758400,17.37575830078125,-4.503292083740234,-86.83553314208984,-1.2969099283218384
1771038066641724700,17.394724609375,-7.810173034667969,-34.89213943481445,0.6699903607368469
1771038066660690700,17.413690673828125,-13.25145149230957,-11.643474578857422,0.7752745151519775
1771038066679656700,17.43265673828125,-8.944371223449707,-3.483949661254883,-0.97148597240448
1771038066698622700,17.451622802734374,-7.4847493171691895,0.9762716293334961,-1.1341979503631592
1771038066717588700,17.470588623046876,-5.115854740142822,2.455035924911499,-0.009571290574967861
1771038066736554800,17.4895546875,-5.522634506225586,3.34995174407959,-1.6558332443237305
1771038066755521000,17.50852099609375,-20.98505401611328,6.393621921539307,-3.053241729736328
1771038066774487000,17.527487060546875,-14.93121337890625,8.408378601074219,-0.30628129839897156
1771038066793453000,17.546453125,-0.727418065071106,8.982656478881836,1.8664016723632812
1771038066812419000,17.565419189453124,-0.1818545162677765,8.748159408569336,2.6321048736572266
1771038066831385000,17.584385009765626,17.77867317199707,0.4737788736820221,10.255638122558594
1771038066850351000,17.60335107421875,30.604202270507812,-10.52363395690918,12.136396408081055
1771038066869317400,17.6223173828125,12.624532699584961,-7.077969551086426,5.197210788726807
1771038066888283400,17.641283447265625,2.66560435295105,-1.3399807214736938,2.0673987865448
1771038066907249400,17.66024951171875,-8.74337387084961,2.612962245941162,6.092126369476318
1771038066926215400,17.67921533203125,-25.378276824951172,-2.9479575157165527,6.57547664642334
1771038066945181400,17.698181396484376,-29.202007293701172,-9.42772102355957,7.427321434020996
1771038066964147500,17.7171474609375,-18.161523818969727,-15.285350799560547,8.685946464538574
1771038066983113500,17.736113525390625,-14.380864143371582,-27.938596725463867,8.58066177368164
1771038067002079500,17.75507958984375,-25.13420867919922,-46.29633331298828,9.509077072143555
1771038067021045500,17.77404541015625,-26.115266799926758,-54.17829132080078,1.8472590446472168
1771038067040011500,17.793011474609376,-25.15813636779785,-46.34418869018555,-0.9810572862625122
1771038067058977800,17.811977783203126,117.85130310058594,-37.1605339050293,-16.4913330078125
1771038067077943800,17.83094384765625,19.994426727294922,-20.190637588500977,-6.355337142944336
1771038067096909800,17.849909912109375,-2.6225335597991943,-11.48076343536377,-3.5844483375549316
1771038067115875800,17.868875732421873,1.1389836072921753,-5.97727108001709,-2.6177480220794678
1771038067134841900,17.887841796875,16.75454330444336,1.1341979503631592,-2.5746772289276123
1771038067153808000,17.906807861328126,15.65384578704834,1.9716858863830566,-2.857030153274536
1771038067172774000,17.92577392578125,-1.210768222808838,1.521835207939148,-1.6223337650299072
1771038067191740000,17.944739990234375,-2.737389087677002,1.8807586431503296,-1.215553879737854
1771038067210706000,17.963705810546877,-1.2490534782409668,2.091326951980591,-1.373480200767517
1771038067229672000,17.982671875,0.4785645306110382,1.7802600860595703,-1.5744773149490356
1771038067248638200,18.00163818359375,0.8805587291717529,0.5599204897880554,-2.794816732406616
1771038067267604200,18.020604248046876,-2.6081767082214355,-2.1200408935546875,-1.698904037475586
1771038067286570200,18.0395703125,-2.7421748638153076,-3.1489546298980713,-1.2681959867477417
1771038067305536300,18.058536376953125,7.369893550872803,-21.875185012817383,-1.1437692642211914
1771038067324502300,18.077502197265623,14.873785972595215,-55.0779914855957,1.0719845294952393
1771038067343468300,18.09646826171875,1.100698471069336,-87.36673736572266,8.551948547363281
1771038067362434300,18.115434326171876,-3.16331148147583,-39.022151947021484,12.854243278503418
1771038067381400300,18.134400390625,-9.169296264648438,-14.371293067932129,4.264009952545166
1771038067400366300,18.153366455078125,-7.795815944671631,-5.891129493713379,-0.02392822690308094
1771038067419332400,18.172332275390627,-8.642875671386719,-1.9669002294540405,-1.1437692642211914
1771038067438298400,18.19129833984375,-8.437092781066895,0.5599204897880554,-1.6319050788879395
1771038067457264400,18.210264404296876,-10.13599681854248,2.9718856811523438,-3.84765887260437
1771038067476230400,18.22923046875,-15.77827262878418,5.575276851654053,-6.723831653594971
1771038067495196400,18.248196533203124,-16.40519142150879,9.226723670959473,-2.589034080505371
1771038067514162700,18.26716259765625,-4.646861553192139,10.691131591796875,1.6366907358169556
1771038067533128700,18.286128662109373,-1.0959128141403198,10.341779708862305,4.206582069396973
1771038067552094700,18.3050947265625,16.81197166442871,5.3312087059021,9.982855796813965
1771038067571060700,18.324060791015626,37.47160339355469,-7.939385414123535,16.204195022583008
1771038067590026800,18.34302685546875,12.083754539489746,-8.12123966217041,8.34138011932373
1771038067608992800,18.36199267578125,2.517249345779419,-1.6893328428268433,4.838287353515625
1771038067627958800,18.380958740234377,-5.580062389373779,-0.41156548261642456,6.829115867614746
1771038067646924800,18.3999248046875,-18.936798095703125,-4.40757942199707,10.935199737548828
1771038067665890800,18.418890869140625,-30.336204528808594,-8.25523853302002,12.31825065612793
1771038067684856800,18.43785693359375,-21.736400604248047,-13.418949127197266,11.571690559387207
1771038067703822800,18.45682275390625,-20.343778610229492,-27.168107986450195,10.657631874084473
1771038067722788900,18.475788818359376,-16.5391902923584,-39.97928237915039,17.520246505737305
1771038067741755000,18.4947548828125,-21.961326599121094,-47.9043083190918,14.19422435760498
1771038067760721000,18.513720947265625,-11.399407386779785,-47.267818450927734,3.0388846397399902
1771038067779687000,18.53268701171875,134.49098205566406,-50.9049072265625,-12.222537994384766
1771038067798653000,18.55165283203125,39.99363708496094,-20.91805648803711,-4.555934429168701
1771038067817619000,18.570618896484376,9.791430473327637,-14.419149398803711,-1.4691931009292603
1771038067836585000,18.5895849609375,6.116054534912109,-8.528019905090332,-0.7417750358581543
1771038067855551000,18.608551025390625,1.9669002294540405,-4.019941806793213,-1.612762451171875
1771038067874517000,18.62751708984375,8.327022552490234,-0.038285162299871445,-3.2925238609313965
1771038067893483000,18.64648291015625,-0.20099709928035736,1.2059825658798218,-3.3882367610931396
1771038067912449000,18.665448974609376,-2.0721843242645264,1.789831280708313,-2.3736801147460938
1771038067931415000,18.6844150390625,-0.4546363055706024,2.6081767082214355,-0.885344386100769
1771038067950381000,18.703381103515625,8.992227554321289,2.8426733016967773,-0.550349235534668
1771038067969347000,18.72234716796875,-4.73300313949585,-0.7848458290100098,-1.852044701576233
1771038067988313000,18.74131298828125,-3.153740167617798,-2.7182464599609375,-1.0815558433532715
1771038068007279400,18.760279296875,-8.657232284545898,-6.652047157287598,0.22971096634864807
1771038068026245000,18.7792451171875,16.17548179626465,-36.00719451904297,-1.1676974296569824
1771038068045211400,18.79821142578125,8.437092781066895,-77.95816040039062,5.948556900024414
1771038068064177200,18.81717724609375,-2.1343977451324463,-73.57929992675781,18.616159439086914
1771038068083143400,18.836143310546873,-9.083154678344727,-22.640888214111328,12.2799654006958
1771038068102109200,18.855109130859375,-9.260223388671875,-7.293323516845703,3.9912281036376953
1771038068121075500,18.874075439453126,-9.336793899536133,-1.770688772201538,0.15314064919948578
1771038068140041200,18.893041259765624,-9.05444049835205,1.0432707071304321,-0.8327022790908813
1771038068159007500,18.912007568359375,-9.973284721374512,2.1678972244262695,-3.9912281036376953
1771038068177973200,18.93097314453125,-17.974884033203125,4.34536600112915,-7.561319351196289
1771038068196939500,18.949939453125,-20.43470573425293,9.083154678344727,-5.3694939613342285
1771038068215905300,18.9689052734375,-15.012569427490234,16.151552200317383,2.6608188152313232
1771038068234871600,18.98787158203125,-5.091926574707031,11.274980545043945,4.182653903961182
1771038068253837300,19.00683740234375,6.632904529571533,6.302694797515869,7.9728851318359375
1771038068272803600,19.025803466796877,58.504512786865234,-3.5461630821228027,17.927026748657227
1771038068291769300,19.044769287109375,15.199209213256836,-9.389435768127441,13.308879852294922
1771038068310735400,19.0637353515625,2.612962245941162,-4.867001056671143,8.00638484954834
1771038068329701400,19.082701416015624,-0.8279166221618652,-0.3397808074951172,3.579662561416626
1771038068348667400,19.10166748046875,-8.556734085083008,-1.0001999139785767,10.073782920837402
1771038068367633400,19.12063330078125,-24.22972297668457,-5.867201328277588,12.758530616760254
1771038068386599400,19.139599365234375,-31.982467651367188,-11.782258987426758,14.797215461730957
1771038068405565400,19.1585654296875,-23.32523536682129,-22.951953887939453,12.050254821777344
1771038068424531500,19.177531494140624,-15.802200317382812,-35.12663650512695,17.965312957763672
1771038068443497500,19.19649755859375,-14.711073875427246,-44.69314193725586,24.75614356994629
1771038068462463500,19.21546337890625,-13.98365592956543,-47.86124038696289,14.318650245666504
1771038068481429500,19.234429443359375,-4.584648132324219,-55.250274658203125,4.910071849822998
1771038068500395500,19.2533955078125,60.74419403076172,-30.250062942504883,-9.260223388671875
1771038068519361500,19.272361572265623,4.019941806793213,-17.7356014251709,-1.100698471069336
1771038068538327600,19.29132763671875,-0.1818545162677765,-9.858428955078125,-0.2153540402650833
1771038068557293600,19.31029345703125,0.9044869542121887,-4.1730828285217285,-0.8949156403541565
1771038068576259600,19.329259521484374,30.302705764770508,2.9001009464263916,-5.79063081741333
1771038068595225600,19.3482255859375,13.715659141540527,1.4069796800613403,-4.000799655914307
1771038068614191600,19.367191650390627,-0.04785645380616188,0.760917603969574,-1.5553346872329712
1771038068633157600,19.38615771484375,-3.297309637069702,0.8757730722427368,0
1771038068652123600,19.40512353515625,-3.249453067779541,1.4835500717163086,1.1676974296569824
1771038068671089700,19.424089599609374,-2.4598217010498047,1.454836130142212,0.9092726111412048
1771038068690055400,19.443055419921876,0.24406790733337402,-1.1341979503631592,0.05742774158716202
1771038068709021700,19.462021728515627,-2.282752752304077,-2.5746772289276123,-0.8566305041313171
1771038068727987700,19.48098779296875,-5.982056617736816,-7.278966426849365,0.5216353535652161
1771038068784885800,19.5378857421875,-4.192225456237793,-44.99463653564453,3.6083765029907227
1771038068813334500,19.56633447265625,-10.269994735717773,-8.078168869018555,3.814159393310547
1771038068832300500,19.585300537109376,-9.083154678344727,-3.2350962162017822,1.679761528968811
1771038068851266600,19.6042666015625,-6.857829570770264,0.009571290574967861,-0.31106695532798767
1771038068870232600,19.623232666015625,-8.049455642700195,1.4787644147872925,-3.570091485977173
1771038068889198600,19.642198486328127,-23.74637222290039,2.723032236099243,-9.877572059631348
1771038068908164600,19.66116455078125,-20.472990036010742,8.12123966217041,-3.9146578311920166
1771038068927130600,19.680130615234376,-5.484349727630615,12.610175132751465,0.6556333899497986
1771038068946096600,19.6990966796875,-3.4743785858154297,11.672188758850098,3.78544545173645
1771038068965062700,19.718062744140624,8.059026718139648,5.168497085571289,9.633503913879395
1771038068984028700,19.737028564453126,44.35335922241211,-9.762716293334961,23.19123649597168
1771038069002994700,19.75599462890625,11.763115882873535,-8.221738815307617,14.601003646850586
1771038069021960700,19.774960693359375,3.8811583518981934,-2.8522446155548096,5.637490272521973
1771038069040926700,19.7939267578125,1.2203395366668701,1.7754744291305542,8.532805442810059
1771038069059892700,19.812892822265624,-17.75952911376953,-1.153340458869934,12.92602825164795
1771038069078858500,19.8318583984375,-26.87139892578125,-5.2115678787231445,12.63888931274414
1771038069097824500,19.850824462890625,-24.28714942932129,-11.126625061035156,11.069197654724121
1771038069116790500,19.86979052734375,-24.674787521362305,-23.93779754638672,11.475976943969727
1771038069135756500,19.888756591796874,-19.93699836730957,-39.18486404418945,17.22353744506836
1771038069154722600,19.90772265625,-17.515460968017578,-46.9615364074707,19.200008392333984
1771038069173688600,19.9266884765625,-11.298908233642578,-47.12424850463867,7.542177200317383
1771038069192654600,19.945654541015625,56.42275619506836,-53.1589469909668,-3.555734395980835
1771038069211620600,19.96462060546875,50.435916900634766,-22.660030364990234,-3.9146578311920166
1771038069230586600,19.983586669921873,7.470392227172852,-16.208980560302734,-0.07178468257188797
1771038069249552600,20.002552734375,-1.34476637840271,-8.81515884399414,-0.5264210104942322
1771038069268518700,20.0215185546875,0.3684946894645691,-2.0961127281188965,-1.4835500717163086
1771038069287484700,20.040484619140624,26.230121612548828,2.234896421432495,-5.120640277862549
1771038069306450400,20.059450439453126,5.651846885681152,0.7130611538887024,-2.407179594039917
1771038069325416400,20.07841650390625,-2.8905298709869385,1.2346965074539185,-2.421536445617676
1771038069344382500,20.097382568359375,-4.158725738525391,2.115255117416382,-0.6891329288482666
1771038069363348500,20.116348388671874,-1.9621145725250244,2.7517459392547607,-0.2967100143432617
1771038069382314500,20.135314453125,-0.8805587291717529,0.7992027401924133,-0.8949156403541565
1771038069401280500,20.154280517578126,-2.526820659637451,-2.273181438446045,-1.2681959867477417
1771038069420246500,20.17324658203125,-2.933600664138794,-3.3020951747894287,-1.4165509939193726
1771038069439212500,20.192212646484375,17.702102661132812,-24.34457778930664,0.45942193269729614
1771038069458178300,20.21117822265625,11.944971084594727,-64.63014221191406,14.47179126739502
1771038069477144300,20.230144287109376,2.785245656967163,-83.18887329101562,17.682958602905273
1771038069496110300,20.2491103515625,-3.6466617584228516,-29.04408073425293,17.931812286376953
1771038069515076400,20.268076416015624,-9.91107177734375,-9.461220741271973,8.13081169128418
1771038069534042400,20.28704248046875,-7.149754047393799,-3.081955671310425,2.1439690589904785
1771038069553008400,20.30600830078125,-6.628118515014648,0.37806597352027893,-0.8566305041313171
1771038069581457400,20.33445751953125,-7.546962738037109,1.9046868085861206,-5.039284706115723
1771038069600423400,20.35342333984375,-11.016555786132812,3.067598581314087,-7.302894592285156
1771038069619389200,20.37238916015625,-14.567503929138184,5.757131099700928,-6.747759819030762
1771038069638355200,20.391355224609374,-9.77707290649414,8.10688304901123,-2.66560435295105
1771038069657321200,20.4103212890625,-3.7567315101623535,6.355337142944336,1.0719845294952393
1771038069676287200,20.429287353515626,0.35892340540885925,3.9290146827697754,1.1054840087890625
1771038069695253200,20.448253173828125,16.295122146606445,-2.66560435295105,9.42772102355957
1771038069714219300,20.46721923828125,27.766313552856445,-8.293522834777832,13.773087501525879
1771038069733185300,20.486185302734373,-5.3312087059021,-0.11964113265275955,5.714060306549072
1771038069752151300,20.5051513671875,-7.436892986297607,-0.5120640397071838,0.7992027401924133
1771038069771117300,20.524117431640626,-5.613562107086182,-2.4741785526275635,6.623332977294922
1771038069790083000,20.5430830078125,-12.993026733398438,-3.2063822746276855,8.35573673248291
1771038069818532000,20.571531982421874,-28.613372802734375,-9.044869422912598,8.23130989074707
1771038069837498000,20.590498046875,-26.952754974365234,-22.033111572265625,10.863414764404297
1771038069856464100,20.609464111328126,-22.947168350219727,-39.093936920166016,18.85544204711914
1771038069875430100,20.62843017578125,-17.30967903137207,-44.434715270996094,18.91765594482422
1771038069894396200,20.647396240234375,-9.365508079528809,-42.04668045043945,8.422736167907715
1771038069913362200,20.666362060546874,86.32825469970703,-46.52604293823242,0.12442677468061447
1771038069932328000,20.685327880859376,50.37370300292969,-15.979269981384277,1.7228323221206665
1771038069951294000,20.7042939453125,12.189038276672363,-13.62473201751709,1.124626636505127
1771038069970260000,20.723260009765625,2.871387243270874,-9.135796546936035,-0.0526420995593071
1771038069989226000,20.74222607421875,-1.0193424224853516,-4.412364959716797,-1.2203395366668701
1771038070008192000,20.76119189453125,6.427121639251709,0.09571290761232376,-3.7328033447265625
1771038070027158000,20.780157958984375,10.762916564941406,1.1150553226470947,-3.6705899238586426
1771038070046124000,20.7991240234375,-1.8424733877182007,1.3399807214736938,-0.5216353535652161
1771038070065089800,20.81808984375,-6.86261510848999,2.273181438446045,1.7276179790496826
1771038070084055800,20.837055908203126,-2.4885356426239014,2.1296122074127197,1.5074782371520996
1771038070103021800,20.856021728515625,-1.7228323221206665,-0.6508477330207825,1.0911271572113037
1771038070121987800,20.87498779296875,-3.2781670093536377,-2.550748825073242,0.794417142868042
1771038070140953900,20.893953857421874,-2.8905298709869385,-15.261423110961914,6.786045074462891
1771038070159919900,20.912919921875,26.962326049804688,-72.82794952392578,23.698514938354492
1771038070178885600,20.9318857421875,1.0863415002822876,-82.37052917480469,20.779272079467773
1771038070197851600,20.9508515625,-10.06421184539795,-29.24986457824707,15.151352882385254
1771038070216817700,20.969817626953127,-11.10748291015625,-8.642875671386719,7.250252723693848
1771038070235783700,20.98878369140625,-8.839086532592773,-3.1968109607696533,-1.2969099283218384
1771038070254749700,21.007749755859376,-8.461020469665527,-2.7565317153930664,-5.685346603393555
1771038070273715700,21.0267158203125,-10.71984577178955,-1.2490534782409668,-6.652047157287598
1771038070292681700,21.045681640625,-12.79202938079834,0.9858429431915283,-8.547162055969238
1771038070311647700,21.064647705078126,-13.758729934692383,2.0961127281188965,-8.74337387084961
1771038070330613500,21.083613525390625,-6.594619274139404,4.005585193634033,-5.446064472198486
1771038070349579500,21.10257958984375,-2.713460922241211,6.781259536743164,-1.6462619304656982
1771038070368545500,21.121545654296874,-0.5551348328590393,7.101897716522217,-0.46420758962631226
1771038070387511600,21.140511474609376,36.71546936035156,8.24566650390625,6.393621921539307
1771038070406477600,21.1594775390625,25.502704620361328,0.28235307335853577,11.921042442321777
1771038070425443600,21.178443603515625,1.8807586431503296,-0.10049854964017868,12.92602825164795
1771038070444409300,21.197409423828127,-12.050254821777344,5.125426292419434,2.1535403728485107
1771038070463375400,21.216375244140625,-4.570291042327881,1.6701902151107788,2.7517459392547607
1771038070482341400,21.23534130859375,-11.188838958740234,-2.7900311946868896,6.896114826202393
1771038070501307400,21.254307373046874,-22.2149658203125,-6.355337142944336,13.954941749572754
1771038070520273400,21.2732734375,-35.097923278808594,-19.96571159362793,16.850257873535156
1771038070539239400,21.292239501953127,-24.071796417236328,-37.462032318115234,22.353748321533203
1771038070558205400,21.311205322265625,-15.400206565856934,-42.912879943847656,28.742586135864258
1771038070577171200,21.330171142578124,-13.270594596862793,-41.81696701049805,18.908084869384766
1771038070596137200,21.34913720703125,-43.42972946166992,-35.17927932739258,8.95394229888916
1771038070615103200,21.368103271484376,123.14422607421875,-50.58427047729492,-22.60738754272461
1771038070634069200,21.3870693359375,13.935798645019531,-25.502704620361328,-8.394021987915039
1771038070653035300,21.40603515625,-0.0526420995593071,-14.002798080444336,-1.7276179790496826
1771038070672001300,21.425001220703123,3.187239646911621,-4.6995038986206055,-2.0195422172546387
1771038070690967000,21.443967041015625,15.495919227600098,0.004785645287483931,-4.512863636016846
1771038070709933000,21.46293310546875,1.5984054803848267,0.9667003750801086,-4.742574691772461
1771038070728899000,21.481899169921874,-1.34476637840271,1.3878371715545654,-4.54636287689209
1771038070747865000,21.500864990234376,15.448062896728516,3.6131622791290283,-4.828716278076172
1771038070766831000,21.5198310546875,2.6943182945251465,4.043870449066162,-4.029513359069824
1771038070785797000,21.538797119140625,-1.8999011516571045,-0.3445664644241333,-2.5363919734954834
1771038070804763000,21.557762939453124,-1.28255295753479,-3.0484559535980225,-1.5936198234558105
1771038070823729000,21.57672900390625,-0.37806597352027893,-6.532405853271484,-1.0480563640594482
1771038070842695000,21.59569482421875,0.9044869542121887,-24.803998947143555,4.479363918304443
1771038070861661000,21.614660888671875,-0.8757730722427368,-58.85386657714844,8.628518104553223
1771038070880627000,21.633626953125,3.88594388961792,-81.73882293701172,21.573688507080078
1771038070899593000,21.652593017578123,3.053241729736328,-30.60898780822754,19.348363876342773
1771038070918559000,21.67155908203125,-1.8041882514953613,-10.289137840270996,11.897113800048828
1771038070937524700,21.690524658203124,-4.077369689941406,-3.483949661254883,4.302295207977295
1771038070956490800,21.70949072265625,-7.432106971740723,-1.2538390159606934,2.115255117416382
1771038070975456800,21.728456787109376,-10.954341888427734,0.40677985548973083,-0.6843472719192505
1771038070994422800,21.7474228515625,-14.725430488586426,2.737389087677002,-3.4743785858154297
1771038071013388800,21.766388916015625,-12.667603492736816,6.273981094360352,-3.0484559535980225
1771038071032354800,21.785354736328124,-4.551148891448975,7.073183536529541,-2.5363919734954834
1771038071051320600,21.804320556640626,0.22492532432079315,4.575077056884766,-0.8566305041313171
1771038071070286600,21.82328662109375,1.1389836072921753,2.344966173171997,0.22971096634864807
1771038071089252600,21.842252685546875,9.920642852783203,4.59421968460083,3.4552359580993652
1771038071108218600,21.861218505859377,32.207393646240234,-2.3736801147460938,6.8482584953308105
1771038071127184600,21.8801845703125,21.588045120239258,-4.910071849822998,2.7661030292510986
1771038071146150700,21.899150634765626,-3.6993038654327393,-0.8183453679084778,-0.04307080805301666
1771038071165116400,21.918116455078124,-22.56431770324707,7.800601959228516,5.2115678787231445
1771038071184082400,21.93708251953125,-10.394421577453613,1.8903298377990723,7.5086774826049805
1771038071203048400,21.95604833984375,-11.145768165588379,-2.2396819591522217,6.183053493499756
1771038071222014500,21.975014404296875,-16.409976959228516,-6.230910301208496,9.087940216064453
1771038071240980500,21.99398046875,-16.180267333984375,-12.768101692199707,13.883156776428223
1771038071259946500,22.012946533203124,-14.639288902282715,-28.560731887817383,20.262422561645508
1771038071278912500,22.03191259765625,-11.404192924499512,-52.26403045654297,31.829326629638672
1771038071297878300,22.050878173828124,-15.706487655639648,-66.06105041503906,13.505090713500977
1771038071316844300,22.06984423828125,-31.8341121673584,-57.719669342041016,4.981856822967529
1771038071335810300,22.088810302734377,89.61599731445312,-20.980268478393555,4.2831525802612305
1771038071354776300,22.1077763671875,24.894926071166992,-14.390435218811035,1.9286150932312012
1771038071373742300,22.126742431640626,11.519047737121582,-8.786444664001465,1.2059825658798218
1771038071392708400,22.145708251953124,5.335994720458984,-5.2737812995910645,1.3160524368286133
1771038071411674000,22.164674072265626,4.350151538848877,-1.277767300605774,0.0526420995593071
1771038071430640000,22.18364013671875,2.526820659637451,0.7848458290100098,-1.2251251935958862
1771038071449606100,22.202606201171875,-3.373879909515381,0.9810572862625122,-0.5790630578994751
1771038071468572200,22.221572265625,-3.84765887260437,1.3782658576965332,-0.1866401731967926
1771038071487538200,22.2405380859375,2.139183521270752,2.469393014907837,0.6556333899497986
1771038071506504200,22.259504150390626,-0.13878370821475983,1.3256237506866455,0.04785645380616188
1771038071525470000,22.278469970703124,-3.589233875274658,-1.4404792785644531,-0.32542386651039124
1771038071544436000,22.29743603515625,-4.2209391593933105,-3.4169507026672363,-0.2105683982372284
1771038071563402000,22.316402099609373,24.27279281616211,-24.335006713867188,-1.8376877307891846
1771038071582368000,22.335367919921875,-5.259424209594727,-64.62535095214844,12.772887229919434
1771038071601334000,22.354333984375,3.565305709838867,-83.653076171875,0.641276478767395
1771038071620300000,22.373300048828124,-5.288137912750244,-31.08755111694336,9.667003631591797
1771038071639266000,22.39226611328125,-10.17428207397461,-10.389636039733887,5.120640277862549
1771038071658231800,22.411231689453125,-9.719645500183105,-1.1581261157989502,2.4023938179016113
1771038071677197800,22.43019775390625,-8.169096946716309,0.49292147159576416,-1.5170495510101318
1771038071696163800,22.449163818359374,-8.906085968017578,3.737588882446289,-1.7563318014144897
1771038071724612900,22.47761279296875,-11.815757751464844,8.078168869018555,-3.139383316040039
1771038071743579000,22.496578857421873,-12.796815872192383,10.600204467773438,-1.6845471858978271
1771038071762544600,22.515544677734376,-8.403593063354492,12.198610305786133,1.9956140518188477
1771038071781510700,22.5345107421875,-1.8999011516571045,10.427921295166016,3.1250264644622803
1771038071800476700,22.5534765625,1.3495519161224365,4.369294166564941,3.0963125228881836
1771038071819442700,22.572442626953126,50.83790969848633,-4.3549370765686035,9.710074424743652
1771038071838408700,22.59140869140625,22.74138641357422,-11.753544807434082,8.638090133666992
1771038071857374700,22.610374755859375,-7.403393268585205,-2.589034080505371,5.7619171142578125
1771038071876340700,22.6293408203125,-12.79202938079834,0.6843472719192505,-1.2634103298187256
1771038071904789500,22.65778955078125,-18.687944412231445,-6.508477687835693,13.921442031860352
1771038071923755500,22.676755615234374,-29.771499633789062,-13.830514907836914,14.036297798156738
1771038071942721500,22.695721435546876,-20.7362003326416,-20.353349685668945,15.017354965209961
1771038071961687600,22.7146875,-10.514062881469727,-26.48854637145996,18.5778751373291
1771038071990136600,22.743136474609376,-15.692131042480469,-47.808597564697266,19.01815414428711
1771038072009102600,22.7621025390625,-44.91328048706055,-50.560340881347656,10.590633392333984
1771038072028068400,22.781068359375,102.11131286621094,-48.6077995300293,-18.64008903503418
1771038072047034400,22.800034423828127,13.801800727844238,-25.378276824951172,-6.489335060119629
1771038072066000400,22.81900048828125,0.5934200286865234,-13.88794231414795,-2.3736801147460938
1771038072084966400,22.83796630859375,8.135597229003906,-5.149354457855225,-1.5744773149490356
1771038072103932400,22.856932373046874,13.107882499694824,-0.20099709928035736,-2.5698914527893066
1771038072122898400,22.8758984375,12.782458305358887,0.33499518036842346,-3.517449378967285
1771038072141864400,22.894864501953126,3.565305709838867,0.6125625967979431,-3.10109806060791
1771038072170313200,22.923313232421876,-1.4931213855743408,2.3162522315979004,-2.2205393314361572
1771038072189279200,22.942279296875,-3.2542388439178467,2.1774685382843018,-1.545763373374939
1771038072208245200,22.961245361328125,8.614161491394043,2.746960401535034,-0.2727817893028259
1771038072227211300,22.980211181640627,-1.062413215637207,-1.9956140518188477,-1.4979069232940674
1771038072246177300,22.99917724609375,-3.1250264644622803,-3.6993038654327393,-1.2394821643829346
1771038072265143300,23.018143310546876,-0.2105683982372284,-10.676774978637695,0.6125625967979431
1771038072284109300,23.037109375,7.714460372924805,-35.590843200683594,1.2729816436767578
1771038072303075000,23.056074951171876,4.603790760040283,-80.25048828125,8.810373306274414
1771038072322041000,23.075041015625,1.0959128141403198,-64.62056732177734,21.487546920776367
1771038072341007000,23.094007080078125,-2.6943182945251465,-20.248065948486328,15.002998352050781
1771038072359973000,23.11297314453125,-8.484949111938477,-6.427121639251709,5.8337016105651855
1771038072397905200,23.1509052734375,-11.303693771362305,-0.02871387079358101,-1.8999011516571045
1771038072416871200,23.16987109375,-11.906685829162598,2.3258235454559326,-3.7806596755981445
1771038072435837000,23.1888369140625,-13.457234382629395,4.742574691772461,-5.938985824584961
1771038072454803000,23.207802978515623,-18.30509376525879,10.705488204956055,-3.326023578643799
1771038072473769000,23.22676904296875,-14.562718391418457,15.165709495544434,3.493520975112915
1771038072492735000,23.24573486328125,-2.3880369663238525,11.633903503417969,5.077569484710693
1771038072511701000,23.264700927734374,6.876972198486328,7.168896675109863,5.661418437957764
1771038072530667000,23.2836669921875,61.069618225097656,-3.751945972442627,14.768501281738281
1771038072549633000,23.302633056640627,16.46261978149414,-10.978270530700684,12.447463035583496
1771038072568598800,23.321598876953125,-4.54636287689209,-1.856830358505249,7.680960655212402
1771038072587564800,23.340564697265624,-17.563318252563477,3.139383316040039,1.4787644147872925
1771038072606530800,23.35953076171875,-12.184252738952637,-3.603590965270996,10.561919212341309
1771038072625496800,23.378496826171876,-23.27737808227539,-8.638090133666992,14.615360260009766
1771038072644462800,23.397462890625,-27.22075080871582,-15.821343421936035,15.610774993896484
1771038072663428900,23.416428955078125,-17.084753036499023,-25.770700454711914,19.04686737060547
1771038072691878000,23.4448779296875,-14.218152046203613,-47.68416976928711,26.78525733947754
1771038072710843600,23.46384375,-17.247465133666992,-52.45545959472656,12.56710433959961
1771038072729809700,23.4828095703125,108.77771759033203,-61.31847381591797,-9.978070259094238
1771038072748775700,23.501775634765625,28.804798126220703,-27.909883499145508,-6.503692150115967
1771038072767741700,23.52074169921875,-0.8805587291717529,-15.495919227600098,0.8279166221618652
1771038072786707700,23.539707763671874,4.498506546020508,-6.695117950439453,0.3684946894645691
1771038072805673700,23.558673828125,18.410377502441406,2.335394859313965,-0.7752745151519775
1771038072824639700,23.5776396484375,21.635902404785156,3.1968109607696533,-3.460021495819092
1771038072843605800,23.596605712890625,3.4504501819610596,1.2969099283218384,-3.1489546298980713
1771038072862571800,23.61557177734375,-4.034298896789551,1.9525432586669922,-2.172683000564575
1771038072881537800,23.634537841796874,-1.7084753513336182,2.3641088008880615,-1.6366907358169556
1771038072900503600,23.653503662109376,1.8951154947280884,1.9764715433120728,-1.4979069232940674
1771038072919469600,23.672469482421874,6.417550563812256,-2.555534601211548,-2.2061824798583984
1771038072938435600,23.691435546875,-0.4546363055706024,-5.144568920135498,-0.9810572862625122
1771038072957401600,23.710401611328123,-2.699103832244873,-8.312665939331055,0.33020952343940735
1771038072976367600,23.72936767578125,2.2683959007263184,-22.750957489013672,1.6893328428268433
1771038072995333600,23.748333740234376,2.8139593601226807,-52.1970329284668,8.461020469665527
1771038073014299600,23.767299560546874,8.135597229003906,-79.0827865600586,17.687744140625
1771038073033265700,23.786265625,0.4307080805301666,-36.15076446533203,18.37687873840332
1771038073052231700,23.805231689453127,-7.259823799133301,-15.26620864868164,9.384650230407715
1771038073071197700,23.82419775390625,-8.403593063354492,-3.201596736907959,2.1774685382843018
1771038073090163500,23.84316357421875,-9.245866775512695,-0.2967100143432617,-3.22552490234375
1771038073109129500,23.86212939453125,-9.34157943725586,1.9956140518188477,-3.775874137878418
1771038073128095500,23.881095458984376,-10.188638687133789,3.043670415878296,-3.570091485977173
1771038073147061500,23.9000615234375,-10.63370418548584,4.991427898406982,-2.7661030292510986
1771038073166027500,23.919027587890625,-10.595418930053711,7.867600917816162,-2.0243279933929443
1771038073184993500,23.93799365234375,-7.130611419677734,9.260223388671875,-0.2632105052471161
1771038073203959600,23.95695947265625,-1.3543375730514526,9.087940216064453,2.794816732406616
1771038073222925600,23.975925537109376,6.412764549255371,8.111668586730957,4.862215518951416
1771038073241891600,23.9948916015625,58.96393585205078,-3.1489546298980713,12.256037712097168
1771038073260857600,24.013857666015625,15.519847869873047,-8.23130989074707,9.083154678344727
1771038073279823600,24.03282373046875,-20.994625091552734,1.277767300605774,4.364508628845215
1771038073298789600,24.05178955078125,-8.733802795410156,3.680161237716675,2.909672260284424
1771038073317755600,24.070755615234376,-9.781859397888184,-2.7421748638153076,11.93061351776123
1771038073336721400,24.089721435546874,-26.464618682861328,-8.236095428466797,14.802000999450684
1771038073355687400,24.1086875,-22.320249557495117,-14.711073875427246,16.39083480834961
1771038073374653400,24.1276533203125,-21.080766677856445,-29.580074310302734,19.7742862701416
1771038073393619500,24.146619384765625,-16.572689056396484,-48.670013427734375,22.645673751831055
1771038073412585500,24.16558544921875,-14.940784454345703,-54.69992446899414,14.151153564453125
1771038073431551500,24.184551513671874,28.761728286743164,-61.208404541015625,-2.3258235454559326
1771038073450517500,24.203517578125,46.02833557128906,-28.967510223388672,-5.216353416442871
1771038073478966500,24.231966552734374,3.7902309894561768,-11.509476661682129,1.8616160154342651
1771038073497932500,24.2509326171875,9.111868858337402,-4.627718925476074,1.6941183805465698
1771038073516898600,24.269898681640626,22.06661033630371,1.8807586431503296,0.22013968229293823
1771038073535864600,24.288864501953125,17.927026748657227,2.746960401535034,-2.3976082801818848
1771038073554830600,24.30783056640625,8.394021987915039,1.9812572002410889,-2.1535403728485107
1771038073573796600,24.326796630859373,-1.8711873292922974,0.9332008361816406,-0.8901300430297852
1771038073592762600,24.3457626953125,-4.053441524505615,1.28255295753479,-0.22971096634864807
1771038073611728600,24.364728759765626,-4.972285270690918,1.5984054803848267,0.15314064919948578
1771038073630694700,24.383694580078124,5.7619171142578125,0.6891329288482666,2.0195422172546387
1771038073649660700,24.40266064453125,-1.6893328428268433,-1.828116536140442,0.8374879360198975
