time,seconds_elapsed,z,y,x
1770950126753942500,0.176942626953125,0,0,0
1770950126772911900,0.195911865234375,-0.4480094909667969,-1.3908686637878418,0.9979677200317383
1770950126791881500,0.214881591796875,-0.8851461410522461,-1.6088614463806152,1.0252928733825684
1770950126810851000,0.23385107421875,-1.0605573654174805,-1.2425220012664795,0.4865708351135254
1770950126829820400,0.2528203125,-1.6055335998535156,-0.25927209854125977,0.7894878387451172
1770950126848790000,0.2717900390625,-3.009427070617676,1.471118450164795,1.7571744918823242
1770950126867759400,0.29075927734375,-2.4107894897460938,2.067894458770752,2.5843982696533203
1770950126886729000,0.30972900390625,-0.45591163635253906,1.5337367057800293,2.870770215988159
1770950126905697500,0.328697509765625,0.550562858581543,0.821904182434082,3.465705394744873
1770950126924668000,0.34766796875,0.779047966003418,0.32710886001586914,3.8563878536224365
1770950126943637500,0.366637451171875,-0.12844181060791016,-0.1978161334991455,3.7820422649383545
1770950126962607000,0.385607177734375,-1.7689142227172852,-0.6582937240600586,3.2469699382781982
1770950126981576400,0.404576416015625,-2.813164710998535,-0.9765975475311279,2.806886911392212
1770950127000546000,0.423546142578125,-3.8936448097229004,-1.1150612831115723,2.5771186351776123
1770950127019515600,0.442515625,-4.814538955688477,-0.891028642654419,2.522700309753418
1770950127038485000,0.461485107421875,-4.835826396942139,-0.522758960723877,2.517251968383789
1770950127057454600,0.48045458984375,-4.003426551818848,-0.26618194580078125,2.4380719661712646
1770950127076424200,0.499424072265625,-3.1167898178100586,-0.12772846221923828,2.4829092025756836
1770950127095393800,0.518393798828125,-2.3464460372924805,0.11904144287109375,2.1085364818573
1770950127114363100,0.537363037109375,-0.6652078628540039,0.4847078323364258,0.8704574108123779
1770950127133332700,0.556332763671875,0.22089004516601562,1.105515956878662,0.30529460310935974
1770950127152302300,0.57530224609375,1.396397590637207,1.6602206230163574,0.4687819480895996
1770950127171271700,0.594271728515625,3.246901512145996,0.7450189590454102,0.36173176765441895
1770950127190241300,0.6132412109375,5.145780563354492,-1.6392598152160645,0.004453539848327637
1770950127209211000,0.6322109375,5.264451026916504,-3.5590155124664307,-0.3662225008010864
1770950127228180200,0.65118017578125,3.9781265258789062,-4.173957347869873,-0.4633442163467407
1770950127247149800,0.67014990234375,2.131169319152832,-2.391551971435547,-0.7130216360092163
1770950127266119400,0.689119384765625,-0.5205049514770508,-0.004974842071533203,0.21590334177017212
1770950127285089000,0.708089111328125,-2.728956699371338,1.5574474334716797,1.120375394821167
1770950127304058400,0.727058349609375,-4.045169830322266,2.2299938201904297,1.6229864358901978
1770950127323028000,0.746028076171875,-4.339276313781738,1.9419279098510742,1.4640225172042847
1770950127341997600,0.76499755859375,-4.189148902893066,0.7352347373962402,1.237372636795044
1770950127360967000,0.783966796875,-3.6793365478515625,-0.19134998321533203,0.24275480210781097
1770950127379936500,0.8029365234375,-3.4261598587036133,-0.8878846168518066,-0.24339747428894043
1770950127398906000,0.821906005859375,-3.5531396865844727,-1.1338534355163574,-0.6292142271995544
1770950127417875500,0.84087548828125,-4.096169948577881,-1.0527520179748535,-0.7665984630584717
1770950127436845000,0.859844970703125,-4.415675640106201,-0.7684853076934814,-0.809204638004303
1770950127455814700,0.878814697265625,-4.123544692993164,-0.32596826553344727,-0.7901811003684998
1770950127474784300,0.8977841796875,-3.453188419342041,0.22231435775756836,-0.9233101606369019
1770950127493753600,0.916753662109375,-2.3385157585144043,0.7208476066589355,-0.945195734500885
1770950127512723200,0.93572314453125,-0.9929590225219727,0.9862737655639648,-0.7019758820533752
1770950127531692800,0.95469287109375,0.7429533004760742,0.927922248840332,-0.26414281129837036
1770950127550662400,0.973662353515625,1.7494068145751953,0.6501326560974121,-0.31162822246551514
1770950127569632000,0.992632080078125,1.4980850219726562,0.3307209014892578,-0.798425018787384
1770950127588601300,1.011601318359375,0.7943782806396484,0.2567481994628906,-1.3397066593170166
1770950127607571000,1.030571044921875,0.7021961212158203,0.3364405632019043,-1.4205654859542847
1770950127626540500,1.04954052734375,1.368617057800293,0.6843018531799316,-1.7359397411346436
1770950127645510100,1.06851025390625,1.5660018920898438,1.1320900917053223,-1.6540682315826416
1770950127683449000,1.106448974609375,2.4126720428466797,1.251573085784912,-0.20748722553253174
1770950127702418700,1.125418701171875,2.853384017944336,0.004537105560302734,-0.8583006858825684
1770950127721388300,1.14438818359375,2.236090660095215,-1.0909500122070312,-2.226689577102661
1770950127740357600,1.163357666015625,0.7646894454956055,-1.1906485557556152,-2.4525697231292725
1770950127759327200,1.1823271484375,-0.43164730072021484,-0.2509613037109375,-1.5163459777832031
1770950127778296800,1.201296875,-1.0955400466918945,0.5617456436157227,-0.24107599258422852
1770950127797266400,1.220266357421875,-1.1019983291625977,0.34265947341918945,0.493524432182312
1770950127825720600,1.248720458984375,-1.1018800735473633,-1.2322015762329102,0.25262945890426636
1770950127844690200,1.267690185546875,-1.6376142501831055,-1.9715442657470703,-0.025867760181427002
1770950127863659800,1.28665966796875,-2.588277816772461,-2.198349714279175,0.02486741542816162
1770950127882629400,1.30562939453125,-3.3157472610473633,-1.949341058731079,0.16554778814315796
1770950127901599000,1.324598876953125,-3.7774696350097656,-1.629798173904419,0.07647621631622314
1770950127920568300,1.343568359375,-4.034114837646484,-1.5736217498779297,-0.4838699698448181
1770950127939538000,1.362537841796875,-3.7997798919677734,-1.6306753158569336,-0.9050678014755249
1770950127958507500,1.381507568359375,-2.9202919006347656,-1.3040480613708496,-0.729027509689331
1770950127977477000,1.40047705078125,-1.9994621276855469,-0.5509438514709473,-0.15414947271347046
1770950127996446700,1.41944677734375,-1.2885856628417969,0.17743682861328125,0.299973726272583
1770950128015416000,1.438416015625,-0.7794628143310547,0.6454925537109375,0.3642195761203766
1770950128034385700,1.4573857421875,-0.5654792785644531,0.7523050308227539,0.06335911154747009
1770950128053355300,1.476355224609375,-0.3303232192993164,0.7574896812438965,-0.5019502639770508
1770950128072324900,1.495324951171875,0.12421607971191406,0.7875595092773438,-0.6113122701644897
1770950128091294200,1.514294189453125,0.5519447326660156,0.8469281196594238,-0.4073033928871155
1770950128110263800,1.533263916015625,1.1526575088500977,0.8703832626342773,-0.21073433756828308
1770950128129233400,1.5522333984375,1.8937921524047852,1.0606069564819336,0.152515709400177
1770950128148203000,1.571203125,2.433969497680664,1.5570192337036133,0.35677722096443176
1770950128167172600,1.590172607421875,2.3579845428466797,1.9983491897583008,0.9857630729675293
1770950128186142200,1.60914208984375,1.7462844848632812,2.0385360717773438,1.8029459714889526
1770950128205111800,1.62811181640625,1.7558069229125977,1.3332700729370117,1.8900827169418335
1770950128224081200,1.6470810546875,2.75357723236084,-0.1797471046447754,1.3650375604629517
1770950128243050800,1.66605078125,3.448805809020996,-1.320385456085205,1.0055391788482666
1770950128262020400,1.685020263671875,2.534730911254883,-1.535895586013794,0.9735435247421265
1770950128280990000,1.703989990234375,0.5095539093017578,-0.8918466567993164,0.9992189407348633
1770950128299959300,1.722959228515625,-0.740081787109375,-0.4232349395751953,1.3004875183105469
1770950128318929000,1.741928955078125,-1.0643539428710938,-0.4233512878417969,1.6180297136306763
1770950128337898500,1.7608984375,-1.1397943496704102,-0.5309700965881348,1.6989494562149048
1770950128356868000,1.7798681640625,-1.230574607849121,-0.7967958450317383,1.5048564672470093
1770950128375837700,1.798837646484375,-1.7674646377563477,-1.1658282279968262,0.9066336154937744
1770950128394807300,1.817807373046875,-2.569108009338379,-1.3304338455200195,0.5142242312431335
1770950128413777000,1.83677685546875,-2.974058151245117,-1.1770730018615723,0.5490958094596863
1770950128432746500,1.85574658203125,-3.0302867889404297,-0.7788796424865723,0.8783008456230164
1770950128451715800,1.8747158203125,-2.981494903564453,-0.4663729667663574,0.8971619606018066
1770950128470685400,1.893685546875,-2.922104835510254,-0.4994649887084961,0.5315559506416321
1770950128489655000,1.912655029296875,-2.7557859420776367,-0.5640830993652344,0.09035086631774902
1770950128508624600,1.931624755859375,-2.4276304244995117,-0.5107169151306152,-0.2936093211174011
1770950128527594000,1.950593994140625,-1.9822311401367188,-0.3247199058532715,-0.6222030520439148
1770950128546563600,1.9695634765625,-1.7249846458435059,-0.058148860931396484,-0.5347509980201721
1770950128565533200,1.988533203125,-1.3916683197021484,0.27696657180786133,-0.2831237316131592
1770950128584502800,2.007502685546875,-0.8262147903442383,0.5275745391845703,-0.2606048583984375
1770950128603472400,2.026472412109375,-0.3600330352783203,0.6378889083862305,-0.2824193239212036
1770950128622442000,2.04544189453125,-0.007721900939941406,0.7468194961547852,-0.35095906257629395
1770950128641411600,2.06441162109375,0.40114498138427734,0.8049583435058594,-0.19227147102355957
1770950128660381200,2.083381103515625,1.4941816329956055,0.9876565933227539,-0.2828258275985718
1770950128679350800,2.102350830078125,2.2148637771606445,1.2745771408081055,-0.47023820877075195
1770950128698320100,2.121320068359375,1.6262140274047852,1.6203384399414062,-0.7552099227905273
1770950128717289700,2.140289794921875,0.9297962188720703,1.6016931533813477,-1.3137458562850952
1770950128736259300,2.15925927734375,0.9265432357788086,0.5514779090881348,-1.7731138467788696
1770950128755229000,2.17822900390625,1.9922723770141602,-1.064502239227295,-2.8635716438293457
1770950128774198500,2.197198486328125,2.300389289855957,-2.3901662826538086,-3.8829121589660645
1770950128793168100,2.216168212890625,1.6588983535766602,-2.6238527297973633,-3.6316027641296387
1770950128812137700,2.2351376953125,0.9294576644897461,-1.6805353164672852,-2.041623115539551
1770950128831107000,2.254107177734375,0.19483184814453125,-0.7247185707092285,-0.44265103340148926
1770950128850076700,2.27307666015625,-0.4704427719116211,-0.29611873626708984,0.685987114906311
1770950128869046300,2.29204638671875,-0.7702236175537109,-0.5037212371826172,1.2546619176864624
1770950128888016000,2.311015869140625,-0.5534152984619141,-0.9068858623504639,1.1248619556427002
1770950128906985500,2.3299853515625,-0.9453096389770508,-1.1370439529418945,0.720730185508728
1770950128925954800,2.348954833984375,-1.9800262451171875,-1.040893316268921,0.24176812171936035
1770950128944924400,2.36792431640625,-3.289341926574707,-0.6091508865356445,-0.13565456867218018
1770950128963894000,2.38689404296875,-4.026342391967773,-0.1742691993713379,-0.6127734184265137
1770950128982863600,2.405863525390625,-3.5527095794677734,0.18864202499389648,-1.0572328567504883
1770950129001833200,2.424833251953125,-2.774198532104492,0.40984535217285156,-1.0770847797393799
1770950129020802800,2.443802734375,-1.9939050674438477,0.7425932884216309,-0.9901049137115479
1770950129039772400,2.4627724609375,-1.686549186706543,1.0699257850646973,-1.0711623430252075
1770950129058742000,2.481741943359375,-1.454768180847168,1.2539587020874023,-1.4406745433807373
1770950129077711600,2.500711669921875,-1.2405738830566406,1.237417221069336,-2.0581493377685547
1770950129096681000,2.519680908203125,-1.08717679977417,0.9503378868103027,-2.3690829277038574
1770950129115650600,2.538650634765625,-0.35230159759521484,0.8848257064819336,-2.2782979011535645
1770950129134620200,2.5576201171875,0.7336435317993164,0.9991335868835449,-1.7779333591461182
1770950129153589800,2.57658984375,1.416177749633789,1.1182904243469238,-1.0378873348236084
1770950129172559400,2.595559326171875,1.662714958190918,1.2164607048034668,-0.21212494373321533
1770950129191529000,2.614529052734375,1.8415155410766602,1.211143970489502,0.5000036358833313
1770950129210498600,2.63349853515625,2.501251220703125,1.088179111480713,1.0980775356292725
1770950129229468200,2.65246826171875,3.034191131591797,1.1074442863464355,1.6134984493255615
1770950129248437800,2.671437744140625,2.9062271118164062,1.4651403427124023,2.0846502780914307
1770950129267407000,2.690406982421875,2.2070369720458984,1.4927058219909668,2.699403762817383
1770950129286376700,2.709376708984375,1.2406349182128906,0.7875738143920898,2.8081936836242676
1770950129305346300,2.72834619140625,1.0216913223266602,-0.9787085056304932,2.1662139892578125
1770950129324316000,2.74731591796875,0.8945064544677734,-2.569805860519409,1.2530299425125122
1770950129343285500,2.766285400390625,-0.08367156982421875,-3.031980037689209,0.7726607918739319
1770950129362254800,2.7852548828125,-1.8417167663574219,-1.993635654449463,1.078444480895996
1770950129381224400,2.804224365234375,-2.926875591278076,-0.7381527423858643,1.3822609186172485
1770950129400194000,2.823194091796875,-2.8064069747924805,-0.32072877883911133,1.5652384757995605
1770950129419163600,2.84216357421875,-2.5228447914123535,-0.3404855728149414,1.6299372911453247
1770950129438133200,2.86113330078125,-2.3725709915161133,-0.24170780181884766,1.4494190216064453
1770950129457102800,2.880102783203125,-2.0606560707092285,-0.09247684478759766,1.2084898948669434
1770950129476072400,2.899072509765625,-2.0087366104125977,-0.08058929443359375,0.6413866281509399
1770950129495041800,2.918041748046875,-2.5921883583068848,-0.19085073471069336,-0.04269707202911377
1770950129514011400,2.937011474609375,-3.0888776779174805,-0.2670478820800781,-0.585791826248169
1770950129532981000,2.95598095703125,-3.372504234313965,-0.1544957160949707,-1.1022332906723022
1770950129551950600,2.97495068359375,-3.2276101112365723,0.11146831512451172,-1.5241632461547852
1770950129570920200,2.993920166015625,-2.795382499694824,0.3479347229003906,-1.7593811750411987
1770950129589889800,3.012889892578125,-2.0706748962402344,0.5863637924194336,-1.7293636798858643
1770950129608859400,3.031859375,-0.9288063049316406,0.8360028266906738,-1.4804024696350098
1770950129627829000,3.0508291015625,-0.03450775146484375,1.0472111701965332,-1.4299511909484863
1770950129646798300,3.06979833984375,0.1879749298095703,1.1520681381225586,-1.567317008972168
1770950129665768000,3.088767822265625,0.039719581604003906,1.2769513130187988,-1.7404729127883911
1770950129684737500,3.107737548828125,0.5482177734375,1.3902406692504883,-1.883262276649475
1770950129703707100,3.12670703125,1.5622825622558594,1.137545108795166,-1.9798047542572021
1770950129722676700,3.1456767578125,2.685431480407715,0.7300348281860352,-2.084440231323242
1770950129741646000,3.16464599609375,4.041042327880859,0.6204500198364258,-2.0787956714630127
1770950129760615700,3.18361572265625,3.1002893447875977,1.2284126281738281,-1.6443737745285034
1770950129779585300,3.202585205078125,1.9557924270629883,1.9363079071044922,-1.2862682342529297
1770950129798555000,3.221554931640625,1.8941240310668945,1.9128961563110352,-1.1782885789871216
1770950129817524500,3.2405244140625,1.9595756530761719,0.8850765228271484,-1.6401069164276123
1770950129836494000,3.259494140625,1.944117546081543,-0.4898405075073242,-2.1618666648864746
1770950129855463700,3.278463623046875,1.9445266723632812,-1.2913801670074463,-2.431800127029419
1770950129874433300,3.297433349609375,1.7351970672607422,-1.4816741943359375,-2.019151449203491
1770950129893402600,3.316402587890625,1.5018138885498047,-1.441857099533081,-0.7822402715682983
1770950129912372200,3.335372314453125,1.0317621231079102,-1.1767663955688477,0.7362428903579712
1770950129931341800,3.354341796875,0.3524513244628906,-1.0294599533081055,1.61789071559906
1770950129950311200,3.373311279296875,-0.6806306838989258,-1.2019853591918945,1.8324166536331177
1770950129969280800,3.39228076171875,-1.839156150817871,-1.4413142204284668,1.6743659973144531
1770950129988250400,3.41125048828125,-2.6280412673950195,-1.5387120246887207,1.2436776161193848
1770950130007220000,3.430219970703125,-3.2416038513183594,-1.5373549461364746,0.7752904891967773
1770950130026189600,3.449189453125,-3.7888760566711426,-1.3567218780517578,0.5700243711471558
1770950130045159200,3.4681591796875,-3.993699073791504,-0.9134206771850586,0.5627927184104919
1770950130064128800,3.487128662109375,-4.021432876586914,-0.4042510986328125,0.6378445029258728
1770950130083098000,3.50609814453125,-3.906325340270996,0.12848854064941406,0.907380998134613
1770950130102067700,3.525067626953125,-3.40462589263916,0.5481796264648438,0.9342629909515381
1770950130121037300,3.544037353515625,-2.326643466949463,0.6349077224731445,0.6826746463775635
1770950130140007000,3.5630068359375,-1.0285873413085938,0.4290943145751953,0.253637433052063
1770950130158976500,3.5819765625,-0.151214599609375,0.21601533889770508,-0.3414198160171509
1770950130177945900,3.60094580078125,0.4210958480834961,0.23306798934936523,-0.577406644821167
1770950130196915500,3.61991552734375,1.0996036529541016,0.3229255676269531,-0.3790595531463623
1770950130215885000,3.638885009765625,1.758575439453125,0.46059131622314453,-0.055687546730041504
1770950130234854400,3.6578544921875,2.20269775390625,0.4961977005004883,0.18937325477600098
1770950130253824000,3.676823974609375,2.280557632446289,0.8923397064208984,0.0584259033203125
1770950130272793600,3.695793701171875,2.5492029190063477,1.4726262092590332,0.36419641971588135
1770950130291763200,3.71476318359375,3.405585289001465,2.0597763061523438,0.7563508749008179
1770950130310732800,3.73373291015625,3.6685142517089844,1.425154685974121,1.3207377195358276
1770950130329702100,3.7527021484375,4.128119468688965,-0.4881703853607178,1.077543020248413
1770950130348671700,3.771671630859375,4.099912643432617,-2.0932443141937256,-0.04687166213989258
1770950130367641300,3.790641357421875,3.5627689361572266,-3.295044422149658,-0.5514272451400757
1770950130386611000,3.80961083984375,2.283031463623047,-2.404003620147705,-0.6158493757247925
1770950130405580300,3.828580322265625,0.23043155670166016,-0.674846887588501,0.6000612378120422
1770950130424550000,3.8475498046875,-1.362748146057129,0.6763582229614258,1.4827247858047485
1770950130443519500,3.86651953125,-2.571833610534668,1.3206353187561035,1.9856047630310059
1770950130462489000,3.885489013671875,-3.2037506103515625,1.2977728843688965,1.673417568206787
1770950130481458700,3.904458740234375,-3.521688461303711,0.6464142799377441,0.994601845741272
1770950130500428000,3.923427978515625,-3.8170719146728516,-0.2297530174255371,0.24044108390808105
1770950130519397600,3.942397705078125,-3.9820117950439453,-1.0032837390899658,-0.3477276563644409
1770950130538367200,3.9613671875,-3.9447622299194336,-1.2884666919708252,-0.5696239471435547
1770950130557336800,3.9803369140625,-3.590087413787842,-1.0945372581481934,-0.47751176357269287
1770950130576306200,3.99930615234375,-2.979663848876953,-0.6046278476715088,-0.17425918579101562
1770950130595275800,4.01827587890625,-2.4497909545898438,-0.06709051132202148,0.06752467155456543
1770950130614245400,4.037245361328125,-1.7294588088989258,0.4040207862854004,0.10708975791931152
1770950130633214700,4.056214599609375,-0.8515968322753906,0.5599360466003418,-0.04607748985290527
1770950130652184300,4.075184326171875,-0.33705902099609375,0.4526529312133789,-0.5560389757156372
1770950130671154000,4.09415380859375,-0.04268074035644531,0.3364543914794922,-1.1060283184051514
1770950130690123300,4.113123291015625,0.033107757568359375,0.47831106185913086,-1.3393818140029907
1770950130709092900,4.1320927734375,0.48864269256591797,0.7363166809082031,-1.529227614402771
1770950130728062500,4.1510625,0.9756813049316406,0.8725953102111816,-1.5842673778533936
1770950130747031800,4.17003173828125,1.3884496688842773,1.086233139038086,-1.7806422710418701
1770950130766001400,4.18900146484375,1.9139251708984375,1.404200553894043,-1.9317240715026855
1770950130784970800,4.207970703125,2.630509376525879,1.6634254455566406,-1.7001063823699951
1770950130803940400,4.2269404296875,3.702451705932617,1.7789573669433594,-1.183298110961914
1770950130822910000,4.245909912109375,4.342151641845703,1.0923242568969727,-0.9278804063796997
1770950130841879600,4.264879638671875,4.89118766784668,-0.42620849609375,-1.509971261024475
1770950130860849000,4.283848876953125,3.316783905029297,-1.6329245567321777,-2.458343029022217
1770950130879818500,4.302818603515625,0.5318565368652344,-1.298901081085205,-2.758327007293701
1770950130898787800,4.321787841796875,-0.8547887802124023,-0.24368906021118164,-1.7614200115203857
1770950130917757400,4.34075732421875,-0.14847373962402344,0.17908525466918945,-0.14925384521484375
1770950130936727000,4.35972705078125,1.2121524810791016,-0.5851893424987793,0.8506283760070801
1770950130955696400,4.3786962890625,0.9441242218017578,-1.413313388824463,0.9636560678482056
1770950130974666000,4.397666015625,-0.877253532409668,-1.802147388458252,0.8266038298606873
1770950130993635600,4.416635498046875,-2.8583250045776367,-1.668592929840088,0.8763301372528076
1770950131012605000,4.43560498046875,-4.210801124572754,-1.253258228302002,1.054944396018982
1770950131031574500,4.454574462890625,-4.748623847961426,-0.9475202560424805,0.9951224327087402
1770950131050544000,4.473544189453125,-4.883189678192139,-0.8874239921569824,0.694674015045166
1770950131069513500,4.492513427734375,-4.534603118896484,-0.8933761119842529,0.36305713653564453
1770950131088483000,4.511483154296875,-3.6513547897338867,-0.7100744247436523,0.16243839263916016
1770950131107452700,4.53045263671875,-2.670022964477539,-0.2911105155944824,0.10566902160644531
1770950131126422000,4.549422119140625,-2.256617546081543,0.19359254837036133,-0.0007230043411254883
1770950131145391600,4.5683916015625,-2.0609512329101562,0.5775938034057617,-0.2209092378616333
1770950131164361000,4.58736083984375,-1.3842010498046875,0.7231650352478027,-0.4652700424194336
1770950131183330600,4.60633056640625,-0.3893394470214844,0.6954259872436523,-0.8785761594772339
1770950131202300200,4.625300048828125,0.11019611358642578,0.7232613563537598,-1.4477812051773071
1770950131221269500,4.64426953125,0.4175453186035156,0.8034777641296387,-1.7892802953720093
1770950131240239000,4.663239013671875,1.034134864807129,0.9999203681945801,-1.7002143859863281
1770950131259208400,4.68220849609375,1.7820568084716797,1.1504020690917969,-1.2731937170028687
1770950131278178000,4.701177978515625,2.1734466552734375,1.048271656036377,-0.974494218826294
1770950131297147400,4.7201474609375,2.7617578506469727,0.9868059158325195,-1.1623927354812622
1770950131316117000,4.739116943359375,3.2231836318969727,0.9344100952148438,-0.9709135293960571
1770950131335086300,4.75808642578125,3.3371429443359375,1.1926188468933105,-0.6053239107131958
1770950131354056000,4.777055908203125,2.542835235595703,1.1091299057006836,0.12520825862884521
1770950131373025300,4.796025390625,2.1587467193603516,0.1564478874206543,0.6376608610153198
1770950131391995000,4.814994873046875,1.9145793914794922,-1.3044819831848145,0.22201132774353027
1770950131410964200,4.833964111328125,1.0453948974609375,-2.4754526615142822,-0.28100156784057617
1770950131429933800,4.852933837890625,-0.48987388610839844,-2.1908304691314697,-0.3528881072998047
1770950131448903200,4.871903076171875,-1.7588586807250977,-0.9958276748657227,0.387874960899353
1770950131467872800,4.890872802734375,-1.739436149597168,0.1433548927307129,1.3253836631774902
1770950131486842000,4.909842041015625,-0.861454963684082,0.5835657119750977,1.6319618225097656
1770950131505811700,4.928811767578125,-0.6552610397338867,0.27965211868286133,1.1822526454925537
1770950131524781300,4.94778125,-1.148024559020996,-0.18236660957336426,0.3617863655090332
1770950131543750700,4.966750732421875,-1.970170021057129,-0.407367467880249,-0.1546328067779541
1770950131562720300,4.98572021484375,-2.571014404296875,-0.44109272956848145,-0.3177330493927002
1770950131581689600,5.004689697265625,-3.071826934814453,-0.3520691394805908,-0.2685811519622803
1770950131600659000,5.023658935546875,-3.357389450073242,-0.2761242389678955,-0.2308962345123291
1770950131619628500,5.042628662109375,-3.454190254211426,-0.19440841674804688,-0.27599334716796875
1770950131638598000,5.061597900390625,-3.3248414993286133,0.030786514282226562,-0.19622480869293213
1770950131657567500,5.0805673828125,-2.954726219177246,0.44207000732421875,-0.13981080055236816
1770950131676536800,5.099536865234375,-2.438591480255127,0.7549576759338379,-0.1454627513885498
1770950131695506200,5.118506103515625,-1.7325787544250488,0.9641933441162109,-0.31177639961242676
1770950131714475800,5.137475830078125,-1.2392263412475586,1.0483150482177734,-0.7128145694732666
1770950131733445400,5.1564453125,-1.060049057006836,1.0168347358703613,-1.2014350891113281
1770950131752414700,5.175414794921875,-0.6659469604492188,1.0259342193603516,-1.6098170280456543
1770950131771384000,5.194384033203125,0.5792236328125,0.9696793556213379,-1.8559284210205078
1770950131790353700,5.213353759765625,2.615096092224121,0.5877375602722168,-1.8678748607635498
1770950131809323000,5.232322998046875,4.733220100402832,0.2522892951965332,-2.2341034412384033
1770950131828292600,5.251292724609375,4.683222770690918,0.45713376998901367,-2.531019687652588
1770950131847262000,5.270261962890625,3.373337745666504,1.4576025009155273,-2.6145851612091064
1770950131866231300,5.289231201171875,3.710691452026367,2.102877140045166,-2.0753908157348633
1770950131885201000,5.308200927734375,5.710300445556641,0.6725411415100098,-1.3096354007720947
1770950131904170200,5.327170166015625,5.720791816711426,-1.5669646263122559,-1.7710134983062744
1770950131923139800,5.346139892578125,3.6151695251464844,-2.2703909873962402,-2.243107795715332
1770950131942109200,5.365109130859375,0.8691978454589844,-1.5793085098266602,-1.457890510559082
1770950131961078500,5.38407861328125,0.21428585052490234,-0.7944889068603516,0.2735213041305542
1770950131980048000,5.4030478515625,0.23469066619873047,-0.5125405788421631,1.5533849000930786
1770950131999017500,5.422017578125,-0.47918701171875,-0.634852409362793,1.6354621648788452
1770950132017986800,5.44098681640625,-1.6954460144042969,-1.2748775482177734,1.9934544563293457
1770950132036956200,5.4599560546875,-2.4988832473754883,-1.4605960845947266,1.344405174255371
1770950132055925800,5.47892578125,-3.110166549682617,-1.7936501502990723,1.047128677368164
1770950132074895000,5.49789501953125,-3.569308280944824,-1.7984614372253418,0.7434744834899902
1770950132093864700,5.51686474609375,-3.9888710975646973,-1.4441146850585938,0.6593294143676758
1770950132112834000,5.535833984375,-4.304165363311768,-0.9629137516021729,0.7556271553039551
1770950132131803400,5.554803466796875,-4.1323089599609375,-0.39580249786376953,0.736204981803894
1770950132150772700,5.573772705078125,-3.658397674560547,0.1311023235321045,0.818824291229248
1770950132169742300,5.592742431640625,-2.612677574157715,0.5992386341094971,0.9760899543762207
1770950132188711700,5.611711669921875,-1.268122673034668,0.7141335010528564,0.9987698793411255
1770950132207681300,5.630681396484375,-0.06612491607666016,0.5344333648681641,0.740686297416687
1770950132226650600,5.649650634765625,-0.23080921173095703,0.6263213157653809,0.15070927143096924
1770950132245620000,5.668619873046875,-0.8825931549072266,0.9797091484069824,-0.3611663579940796
1770950132264589300,5.68758935546875,-0.9799752235412598,1.5383143424987793,-0.29448914527893066
1770950132283559000,5.706558837890625,0.2442159652709961,1.9160957336425781,0.09999454021453857
1770950132302528300,5.7255283203125,2.031892776489258,1.8763275146484375,0.7003639936447144
1770950132321497600,5.74449755859375,4.0071563720703125,1.4259357452392578,0.6306467056274414
1770950132340467000,5.763467041015625,4.619356155395508,0.9445385932922363,0.4296075105667114
1770950132359436300,5.782436279296875,5.061860084533691,1.1242022514343262,0.4513818025588989
1770950132378406000,5.801406005859375,4.407051086425781,1.4919662475585938,0.5977171659469604
1770950132397375200,5.820375244140625,3.5704994201660156,0.8080482482910156,0.9850651025772095
1770950132416344600,5.839344482421875,3.1818199157714844,-0.7172398567199707,0.742344856262207
1770950132435314000,5.85831396484375,3.32705020904541,-2.1117167472839355,0.2887212038040161
1770950132454283300,5.877283203125,2.6879701614379883,-2.589029550552368,0.05899012088775635
1770950132473252900,5.8962529296875,1.2346153259277344,-1.899792194366455,0.428239107131958
1770950132492222200,5.91522216796875,-0.5903730392456055,-0.5028591156005859,1.2251641750335693
1770950132511191600,5.934191650390625,-1.8438644409179688,0.40531492233276367,1.6458817720413208
1770950132530161000,5.953160888671875,-2.6093554496765137,0.4435868263244629,1.354032039642334
1770950132549130200,5.972130126953125,-3.215017318725586,-0.19213342666625977,0.6850748658180237
1770950132568099800,5.991099853515625,-3.698458671569824,-0.6651837825775146,0.03416717052459717
1770950132587069200,6.010069091796875,-3.6992859840393066,-0.9526069164276123,-0.3487575054168701
1770950132606038500,6.02903857421875,-3.6275758743286133,-0.9831657409667969,-0.616236686706543
1770950132625007900,6.0480078125,-3.8099098205566406,-0.788978099822998,-0.8331255912780762
1770950132643977200,6.066977294921875,-3.7638115882873535,-0.480043888092041,-0.8980704545974731
1770950132662946800,6.08594677734375,-3.226119041442871,-0.08463430404663086,-0.8922375440597534
1770950132681916200,6.104916259765625,-2.3263816833496094,0.21510791778564453,-0.840457558631897
1770950132700885500,6.123885498046875,-1.3347868919372559,0.4000816345214844,-0.68094801902771
1770950132719854800,6.142854736328125,-0.546900749206543,0.5267815589904785,-0.6836214065551758
1770950132738824200,6.16182421875,0.017541885375976562,0.6150994300842285,-0.897133469581604
1770950132757793500,6.18079345703125,0.10834503173828125,0.617393970489502,-1.2850745916366577
1770950132776763000,6.199762939453125,0.31441497802734375,0.6678071022033691,-1.4052544832229614
1770950132795732200,6.218732177734375,0.5239753723144531,0.9886641502380371,-1.5118175745010376
1770950132814701800,6.237701904296875,0.6974248886108398,1.3340697288513184,-1.5281267166137695
1770950132833671200,6.256671142578125,1.7762603759765625,1.2913188934326172,-1.4315110445022583
1770950132852640500,6.275640625,3.3831987380981445,1.0598235130310059,-0.9256248474121094
1770950132871609900,6.29460986328125,4.651597023010254,0.7993412017822266,-0.4523940086364746
1770950132890579200,6.3135791015625,4.369026184082031,1.0527706146240234,-0.8338470458984375
1770950132909548500,6.332548583984375,0.14136505126953125,2.3945136070251465,-1.4609410762786865
1770950132928518000,6.351517822265625,-2.761776924133301,4.628976345062256,-1.1811022758483887
1770950132947487200,6.3704873046875,-0.5505733489990234,4.534070014953613,-0.16052699089050293
1770950132966456600,6.38945654296875,2.902568817138672,1.1605682373046875,0.3358522653579712
1770950132985426000,6.408426025390625,3.631026268005371,-0.9133744239807129,-0.9766690731048584
1770950133004395300,6.427395263671875,1.78759765625,-1.7012615203857422,-1.9966747760772705
1770950133023364600,6.446364501953125,1.2786312103271484,-1.5417375564575195,-1.2930197715759277
1770950133042334000,6.465333984375,1.978811264038086,-1.208200454711914,0.09745895862579346
1770950133061303300,6.48430322265625,1.1739082336425781,-1.3920643329620361,0.9103518724441528
1770950133080272600,6.503272705078125,-0.7230033874511719,-1.556262493133545,1.1502037048339844
1770950133099242000,6.522241943359375,-2.4737396240234375,-1.4915475845336914,1.4995224475860596
1770950133118211300,6.54121142578125,-3.2387475967407227,-1.0402045249938965,1.7268693447113037
1770950133137180700,6.5601806640625,-3.215052604675293,-0.8207528591156006,1.4730024337768555
1770950133156150000,6.57914990234375,-3.1423110961914062,-1.1460423469543457,1.1512174606323242
1770950133175119400,6.598119384765625,-3.2268424034118652,-1.2223951816558838,1.1774920225143433
1770950133194088700,6.617088623046875,-2.6496429443359375,-0.8477411270141602,1.1500611305236816
1770950133213058000,6.63605810546875,-1.988276481628418,-0.7094981670379639,1.1149218082427979
1770950133232027400,6.65502734375,-1.637641429901123,-0.828028678894043,1.2017147541046143
1770950133250996700,6.673996826171875,-1.5716009140014648,-0.5113468170166016,1.0549341440200806
1770950133269966000,6.692966064453125,-1.5782623291015625,-0.12276697158813477,0.6181566715240479
1770950133288935400,6.711935302734375,-1.1950254440307617,0.2794952392578125,0.16887235641479492
1770950133307904500,6.730904541015625,-0.6407065391540527,0.7391905784606934,-0.06792283058166504
1770950133326874000,6.7498740234375,-0.058541297912597656,0.9903769493103027,-0.2061161994934082
1770950133345843200,6.76884326171875,1.4009933471679688,0.8580169677734375,-0.21371030807495117
1770950133364812500,6.7878125,2.6713037490844727,0.9646339416503906,0.26865291595458984
1770950133383782000,6.806781982421875,3.7923498153686523,1.4872283935546875,1.5144729614257812
1770950133402751200,6.825751220703125,4.308935165405273,1.5637540817260742,1.9947150945663452
1770950133421720600,6.844720458984375,4.9182538986206055,-0.24594736099243164,0.4082620143890381
1770950133440690000,6.86368994140625,4.2530975341796875,-2.0818004608154297,-1.3512928485870361
1770950133459659300,6.8826591796875,2.6757888793945312,-3.006004810333252,-1.738490104675293
1770950133478628600,6.901628662109375,2.9403724670410156,-2.1757025718688965,-0.6103813648223877
1770950133497598000,6.920597900390625,3.9576539993286133,-0.5954210758209229,1.045923113822937
1770950133516567000,6.939567138671875,2.9850616455078125,0.6823337078094482,1.8516077995300293
1770950133535536400,6.958536376953125,0.3835287094116211,1.221679925918579,1.5414719581604004
1770950133554505700,6.977505615234375,-1.7645068168640137,0.618067741394043,0.7700026035308838
1770950133573475000,6.99647509765625,-2.7801380157470703,-0.4291062355041504,-0.2344062328338623
1770950133592444400,7.0154443359375,-3.025080680847168,-1.2529160976409912,-0.6226992607116699
1770950133611413800,7.034413818359375,-3.01632022857666,-1.5218212604522705,-0.19886517524719238
1770950133630382800,7.0533828125,-3.3130226135253906,-1.110914707183838,0.479062557220459
1770950133649352200,7.072352294921875,-3.718726634979248,-0.46740150451660156,1.0062437057495117
1770950133668321500,7.091321533203125,-4.195108413696289,-0.049655914306640625,1.0298354625701904
1770950133687291000,7.110290771484375,-4.622615337371826,0.4730403423309326,0.7413359880447388
1770950133706260200,7.12926025390625,-4.49244499206543,1.067051887512207,0.387542724609375
1770950133725229300,7.148229248046875,-3.1690244674682617,1.4034233093261719,0.04186880588531494
1770950133744198700,7.16719873046875,-1.8131513595581055,1.3436098098754883,-0.3165421485900879
1770950133763168000,7.18616796875,-0.4919414520263672,1.2829208374023438,-0.574426531791687
1770950133782137300,7.205137451171875,0.7858200073242188,1.224071979522705,-0.9790745973587036
1770950133801106400,7.2241064453125,1.619980812072754,1.0483250617980957,-1.3748767375946045
1770950133820075800,7.24307568359375,2.1084117889404297,0.9820895195007324,-1.8420991897583008
1770950133839045000,7.262045166015625,3.058661460876465,0.8234853744506836,-2.3090221881866455
1770950133858014500,7.281014404296875,4.447122573852539,0.7580485343933105,-2.6024341583251953
1770950133876983800,7.29998388671875,4.088069915771484,1.4194326400756836,-1.8538389205932617
1770950133895953000,7.318952880859375,3.9991302490234375,2.183645725250244,-0.5308172702789307
1770950133914922200,7.337922119140625,5.597067832946777,1.1721851825714111,0.4894099235534668
1770950133933891600,7.3568916015625,4.801191329956055,-0.46753764152526855,0.1705000400543213
1770950133952860700,7.375860595703125,1.3911752700805664,-0.5921783447265625,-0.9903483390808105
1770950133971830000,7.394830078125,-1.129356861114502,0.35274600982666016,-1.1643881797790527
1770950133990799400,7.41379931640625,-1.2035322189331055,0.8607006072998047,-0.19712328910827637
1770950134009768700,7.432768798828125,-0.13581180572509766,0.3141617774963379,0.6423888206481934
1770950134028737800,7.45173779296875,0.21709156036376953,-0.7301340103149414,0.7196353673934937
1770950134047707100,7.47070703125,-0.7856969833374023,-1.776458740234375,0.4406776428222656
1770950134066676500,7.489676513671875,-2.3414230346679688,-2.5200443267822266,-0.051602721214294434
1770950134085645600,7.5086455078125,-3.848782539367676,-2.961777448654175,-0.5073850154876709
1770950134104615000,7.527614990234375,-4.781460762023926,-2.939497947692871,-1.0660617351531982
1770950134123584300,7.546584228515625,-5.395331382751465,-2.8705697059631348,-1.5239561796188354
1770950134142553300,7.56555322265625,-5.641361236572266,-2.7680439949035645,-1.9189326763153076
1770950134161522700,7.584522705078125,-5.456543445587158,-2.366816520690918,-2.132615566253662
1770950134180492000,7.603491943359375,-5.005341529846191,-1.6407685279846191,-2.0410914421081543
1770950134199461000,7.622461181640625,-4.043575286865234,-0.8458027839660645,-1.62238347530365
1770950134218430500,7.641430419921875,-2.332858085632324,0.0390625,-0.8028998374938965
1770950134237399600,7.660399658203125,0.1920928955078125,0.866687536239624,0.034275054931640625
1770950134256369000,7.679368896484375,1.3880624771118164,1.065323829650879,0.08714377880096436
1770950134275338200,7.698338134765625,0.6141738891601562,1.067537784576416,-0.9177131652832031
1770950134294307300,7.717307373046875,0.09192085266113281,1.165374755859375,-1.671598196029663
1770950134313276700,7.736276611328125,1.1618013381958008,1.2302582263946533,-1.5100162029266357
1770950134332245800,7.755245849609375,3.121973991394043,0.9519400596618652,-0.8518354892730713
1770950134351215000,7.774215087890625,4.765168190002441,0.6105320453643799,-0.0708158016204834
1770950134370184200,7.79318408203125,4.765369415283203,0.5056424140930176,0.8506602048873901
1770950134389153500,7.812153564453125,4.51334285736084,1.016770839691162,1.215465784072876
1770950134408123000,7.831122802734375,4.289336204528809,1.2719204425811768,1.3325250148773193
1770950134427092000,7.850092041015625,4.534232139587402,0.4912605285644531,1.1037148237228394
1770950134446061300,7.869061279296875,5.1131181716918945,-0.7683677673339844,0.875813364982605
1770950134465030400,7.888030517578125,5.125828742980957,-1.3502295017242432,1.203513741493225
1770950134483999700,7.906999755859375,4.667235374450684,-1.1927728652954102,1.7401020526885986
1770950134502968800,7.92596875,3.400003433227539,-0.7190375328063965,2.211287498474121
1770950134521938200,7.944938232421875,1.5161285400390625,-0.42191100120544434,2.193382978439331
1770950134540907300,7.9639072265625,-0.5533037185668945,-0.23325181007385254,1.9933335781097412
1770950134559876600,7.982876708984375,-2.4288840293884277,-0.2194218635559082,1.5843863487243652
1770950134578845700,8.001845703125,-3.717256546020508,-0.33647680282592773,1.1955146789550781
1770950134597815000,8.02081494140625,-4.446393013000488,-0.5833711624145508,0.9659168720245361
1770950134616784100,8.0397841796875,-4.418805122375488,-0.8191859722137451,0.8768196105957031
1770950134635753500,8.05875341796875,-4.197789192199707,-0.8938283920288086,0.9534831047058105
1770950134654722600,8.07772265625,-4.141146183013916,-0.7452846765518188,1.0131707191467285
1770950134673692000,8.09669189453125,-4.220365524291992,-0.35523533821105957,1.014733076095581
1770950134692661000,8.115660888671876,-4.266869068145752,0.13520431518554688,0.8755931854248047
1770950134711630300,8.13463037109375,-4.054388046264648,0.456742525100708,0.47998976707458496
1770950134730599400,8.153599365234374,-3.6781435012817383,0.8375921249389648,0.0650634765625
1770950134749568500,8.172568603515625,-3.081258773803711,1.1170134544372559,-0.2839205265045166
1770950134768537900,8.191537841796874,-1.9086847305297852,1.235767126083374,-0.8329041004180908
1770950134787507000,8.2105068359375,-0.07353687286376953,1.0356638431549072,-1.2088878154754639
1770950134806476300,8.229476318359374,1.6096830368041992,0.787102222442627,-1.3246197700500488
1770950134825445400,8.2484453125,3.2415237426757812,0.6292450428009033,-1.7754921913146973
1770950134844414700,8.267414794921875,4.774438858032227,0.3883993625640869,-2.223677635192871
1770950134863383800,8.2863837890625,5.053396224975586,0.34216737747192383,-2.885782241821289
1770950134882353000,8.305352783203125,4.261157989501953,1.0958542823791504,-2.962862014770508
1770950134901322200,8.324322265625,4.091320991516113,2.4081103801727295,-1.7910101413726807
1770950134920291300,8.343291259765625,5.416171073913574,2.5447025299072266,-0.2189033031463623
1770950134939260700,8.3622607421875,6.4248199462890625,0.5590169429779053,0.1779932975769043
1770950134958229800,8.381229736328125,4.533459663391113,-1.0563952922821045,-0.909581184387207
1770950134977198800,8.40019873046875,1.3601455688476562,-1.5236711502075195,-1.6398098468780518
1770950134996168200,8.419168212890625,-0.7030773162841797,-0.8747427463531494,-0.8545987606048584
1770950135015137300,8.43813720703125,-0.6126832962036133,-0.0858619213104248,0.7598857879638672
1770950135034106400,8.4571064453125,-0.45035266876220703,0.2309250831604004,2.015155553817749
1770950135053075500,8.476075439453124,-0.8577156066894531,-0.19068574905395508,2.465165853500366
1770950135072044800,8.495044921875,-1.7554802894592285,-1.008465051651001,2.1140785217285156
1770950135091014000,8.514013916015625,-2.5453929901123047,-1.7240142822265625,1.584039330482483
1770950135109983000,8.53298291015625,-3.0018835067749023,-2.2605481147766113,1.11295485496521
1770950135128952300,8.551952392578125,-3.481144905090332,-2.5503692626953125,0.7051479816436768
1770950135147921400,8.57092138671875,-3.7453622817993164,-2.4499220848083496,0.2131047248840332
1770950135166890500,8.589890380859375,-4.3453898429870605,-1.9369134902954102,0.07166504859924316
1770950135185859800,8.60885986328125,-4.622284889221191,-1.1698620319366455,0.014436721801757812
1770950135204828700,8.62782861328125,-4.083857536315918,-0.43130040168762207,0.05862283706665039
1770950135223798000,8.646798095703126,-3.061399459838867,0.3816671371459961,0.1484997272491455
1770950135242767000,8.66576708984375,-1.8991308212280273,1.122093677520752,0.10376691818237305
1770950135261736200,8.684736083984374,-0.39327144622802734,1.3655450344085693,-0.10480523109436035
1770950135280705500,8.70370556640625,1.2467355728149414,1.0524470806121826,-0.385256290435791
1770950135299674600,8.722674560546874,2.0212154388427734,0.5887033939361572,-0.3320894241333008
1770950135318643700,8.741643798828125,2.0782032012939453,0.5590560436248779,-0.12982678413391113
1770950135337612800,8.76061279296875,1.876317024230957,0.85451340675354,-0.10734176635742188
1770950135356582100,8.77958203125,1.961050033569336,0.7808434963226318,0.09840941429138184
1770950135375551200,8.79855126953125,2.569793701171875,0.8659875392913818,-0.13584160804748535
1770950135394520300,8.817520263671875,2.902271270751953,1.066617488861084,-0.09894847869873047
1770950135413489400,8.836489501953125,3.1700878143310547,1.5263941287994385,0.38250207901000977
1770950135432458500,8.85545849609375,3.1644630432128906,1.4163818359375,0.8583333492279053
1770950135451427600,8.874427490234375,3.8301753997802734,-0.2336275577545166,0.706802487373352
1770950135470397000,8.89339697265625,3.9630842208862305,-2.1302175521850586,0.0327301025390625
1770950135489365800,8.91236572265625,3.281343460083008,-3.3530099391937256,-0.4279298782348633
1770950135508335000,8.931335205078126,1.9851293563842773,-3.614629030227661,-0.136552095413208
1770950135527304200,8.95030419921875,1.0662822723388672,-2.5501348972320557,0.9653241634368896
1770950135546273300,8.969273193359374,-0.12871170043945312,-1.128829002380371,2.1789298057556152
1770950135565242400,8.988242431640625,-1.415128231048584,-0.08040499687194824,2.7751498222351074
1770950135584211500,9.00721142578125,-2.9802589416503906,0.19418907165527344,2.657045841217041
1770950135603180500,9.0261806640625,-4.260930061340332,-0.09961223602294922,1.9763243198394775
1770950135622149600,9.045149658203124,-4.86792516708374,-0.7379910945892334,1.2057222127914429
1770950135641119000,9.064118896484375,-4.650203704833984,-1.1683707237243652,0.5247228145599365
1770950135660088000,9.083088134765624,-4.021833419799805,-1.2193365097045898,0.40341830253601074
1770950135679057200,9.10205712890625,-3.419528007507324,-0.7963333129882812,0.3478437662124634
1770950135698026200,9.121026123046875,-3.2718734741210938,-0.16941428184509277,0.2429966926574707
1770950135716995300,9.139995361328126,-3.506455421447754,0.44231176376342773,0.12125861644744873
1770950135735964400,9.15896435546875,-3.2512617111206055,1.0763485431671143,-0.2801774740219116
1770950135754933500,9.17793359375,-2.3631696701049805,1.344857931137085,-0.5416462421417236
1770950135773902600,9.196902587890625,-1.235886573791504,1.2909796237945557,-0.6100178956985474
1770950135792871700,9.21587158203125,-0.08666610717773438,1.3015384674072266,-0.8352028131484985
1770950135811840800,9.2348408203125,0.9679088592529297,1.0113613605499268,-1.3821210861206055
1770950135830809900,9.253809814453126,1.3359603881835938,0.5809986591339111,-1.8969292640686035
1770950135849779000,9.272779052734375,1.2026195526123047,0.47083449363708496,-2.4005937576293945
1770950135868748000,9.291748046875,0.8190908432006836,1.0040793418884277,-2.783876657485962
1770950135887717000,9.310717041015625,0.8849077224731445,1.9374728202819824,-3.0971035957336426
1770950135906686200,9.329686279296874,1.120722770690918,2.7911765575408936,-2.9865493774414062
1770950135925655300,9.3486552734375,2.719395637512207,2.9785449504852295,-2.5223050117492676
1770950135944624400,9.367624267578124,5.2935638427734375,1.8269000053405762,-1.730621337890625
1770950135963593500,9.386593505859375,7.130546569824219,-0.4903864860534668,-1.622037649154663
1770950135982562600,9.4055625,5.574641227722168,-2.374527931213379,-2.4462931156158447
1770950136001531600,9.42453173828125,1.6444168090820312,-2.6968700885772705,-3.0987792015075684
1770950136020500700,9.443500732421874,-1.2066092491149902,-1.6725387573242188,-2.5545156002044678
1770950136039469800,9.4624697265625,-1.874161720275879,-0.31687307357788086,-0.8577888011932373
1770950136058439000,9.48143896484375,-1.309244155883789,0.5350570678710938,0.848496675491333
1770950136077408000,9.500407958984376,-0.6754055023193359,0.4864501953125,1.8585349321365356
1770950136096377000,9.519377197265625,-0.7338790893554688,0.10184335708618164,1.836495280265808
1770950136115346200,9.53834619140625,-1.755713939666748,-0.5820012092590332,1.3828853368759155
1770950136134315300,9.557315185546875,-2.2759342193603516,-0.9571738243103027,0.9518835544586182
1770950136153284000,9.5762841796875,-2.139812469482422,-1.3375494480133057,0.34389960765838623
1770950136172253200,9.595253173828125,-2.1234798431396484,-1.8618173599243164,-0.1390141248703003
1770950136191222300,9.61422216796875,-2.846036911010742,-2.1076266765594482,-0.5054173469543457
1770950136210191400,9.63319140625,-3.568065643310547,-1.908794641494751,-0.739120602607727
1770950136229160400,9.652160400390626,-3.729846477508545,-1.2893033027648926,-0.7383420467376709
1770950136248129500,9.671129638671875,-3.054211139678955,-0.46219635009765625,-0.3571425676345825
1770950136267098600,9.6900986328125,-2.131927490234375,0.3270573616027832,-0.03803753852844238
1770950136286067700,9.709067626953125,-0.9423007965087891,0.8985428810119629,0.0628514289855957
1770950136305036800,9.728036865234374,0.9505329132080078,0.9708995819091797,-0.20863938331604004
1770950136324006000,9.747005859375,1.900710105895996,0.9329051971435547,-0.7348562479019165
1770950136342974700,9.765974609375,1.1091890335083008,1.1959571838378906,-1.1124874353408813
1770950136361943800,9.78494384765625,0.970703125,1.8439373970031738,-1.1148008108139038
1770950136380913000,9.803912841796874,1.887629508972168,2.457340717315674,-0.51134192943573
1770950136399882000,9.822882080078125,2.888490676879883,2.4196360111236572,-0.3178822994232178
1770950136418851000,9.84185107421875,3.9052581787109375,1.3104395866394043,-1.0152153968811035
1770950136437820200,9.860820068359375,5.164022445678711,-0.4290771484375,-1.619200348854065
1770950136456789000,9.8797890625,3.276980400085449,-0.0859675407409668,-1.0367693901062012
1770950136475758000,9.898758056640625,0.7039041519165039,2.8266830444335938,-0.8266685009002686
1770950136494727200,9.91772705078125,0.5503864288330078,2.542208671569824,-0.46424102783203125
1770950136513696300,9.9366962890625,3.7491159439086914,-0.2949223518371582,0.46470189094543457
1770950136532665300,9.955665283203125,7.304718971252441,-2.296035051345825,0.6404958367347717
1770950136551634200,9.97463427734375,6.643654823303223,-3.896841049194336,0.7727843523025513
1770950136570603300,9.993603271484375,4.548840522766113,-4.015913009643555,0.9616858959197998
1770950136589572400,10.012572265625,1.0301847457885742,-2.444035530090332,1.4324944019317627
1770950136608541200,10.031541259765625,-2.740347385406494,0.8195199966430664,1.5869765281677246
1770950136627510300,10.05051025390625,-2.1893997192382812,1.5876917839050293,1.872778058052063
1770950136646479400,10.069479248046875,-1.2961673736572266,0.04173612594604492,2.1580309867858887
1770950136665448400,10.088448486328126,-0.23740863800048828,-0.4802587032318115,1.2998764514923096
1770950136684417500,10.10741748046875,0.17759037017822266,-0.9130666255950928,0.8939254283905029
1770950136703386400,10.126386474609374,-0.36716651916503906,-1.030839443206787,0.6111903190612793
1770950136722355500,10.14535546875,-1.5007400512695312,-0.9050321578979492,0.5370873212814331
1770950136741324500,10.164324462890624,-2.1984024047851562,-0.7839522361755371,0.5476202964782715
1770950136760293400,10.18329345703125,-2.4038171768188477,-1.0621535778045654,0.38443994522094727
1770950136779262500,10.202262451171874,-2.5193796157836914,-1.5254459381103516,0.16275012493133545
1770950136798231600,10.2212314453125,-2.5999298095703125,-1.648536205291748,0.15827345848083496
1770950136817200600,10.24020068359375,-3.287691116333008,-1.217702865600586,0.2773270606994629
1770950136836169500,10.25916943359375,-3.7218995094299316,-0.5729985237121582,0.6811227798461914
1770950136855138600,10.278138671875,-3.73543643951416,-0.18188238143920898,1.2265312671661377
1770950136874107600,10.297107666015625,-2.9815778732299805,0.21782302856445312,1.3733115196228027
1770950136893076500,10.316076416015624,-2.694993019104004,0.23921966552734375,1.4622299671173096
1770950136912045600,10.335045654296875,-2.1267380714416504,0.39077186584472656,1.4882779121398926
1770950136931014400,10.354014404296874,-1.4478840827941895,0.8281497955322266,1.4772528409957886
1770950136949983500,10.3729833984375,-1.1087331771850586,0.9689769744873047,1.0276548862457275
1770950136968952600,10.39195263671875,-1.114537239074707,0.8803048133850098,0.2679365873336792
1770950136987921400,10.41092138671875,-0.9362087249755859,0.7795343399047852,-0.5196547508239746
1770950137006890500,10.429890380859375,-0.07265186309814453,0.8245849609375,-1.067516803741455
1770950137025859600,10.448859619140626,0.8735504150390625,0.9530553817749023,-1.169309139251709
1770950137044828400,10.467828369140625,2.1483535766601562,1.220644474029541,-1.0915497541427612
1770950137063797500,10.486797607421876,2.4166202545166016,2.033682346343994,-1.3233320713043213
1770950137082766600,10.5057666015625,0.9381389617919922,3.254312038421631,-1.8228739500045776
1770950137101735400,10.5247353515625,0.1889495849609375,3.6331052780151367,-1.8981982469558716
1770950137120704500,10.54370458984375,4.019639015197754,1.1320228576660156,-1.6138806343078613
1770950137139673300,10.56267333984375,6.2931671142578125,-2.0262181758880615,-1.6889809370040894
1770950137158642400,10.581642333984375,3.6424989700317383,-4.182170867919922,-2.239060401916504
1770950137177611500,10.600611572265626,-0.052768707275390625,-4.254636764526367,-2.622814893722534
1770950137196580400,10.619580322265625,-3.506162643432617,-2.1371264457702637,-1.6394015550613403
1770950137215549400,10.638549560546876,-4.501682281494141,1.1987366676330566,0.09579098224639893
1770950137234518300,10.657518310546875,-4.272632598876953,2.119750499725342,1.8264482021331787
1770950137253487000,10.676487060546876,-2.4302096366882324,1.1171355247497559,2.7142834663391113
1770950137272456200,10.695456298828125,0.11329269409179688,-0.1849050521850586,1.9735004901885986
1770950137291425000,10.714425048828126,0.799860954284668,-1.6240110397338867,1.0956754684448242
1770950137310394000,10.73339404296875,-0.17243576049804688,-2.545403480529785,0.2772789001464844
1770950137329363200,10.75236328125,-2.2170000076293945,-2.4907870292663574,-0.25523197650909424
1770950137348332000,10.77133203125,-4.000716209411621,-1.51995849609375,-0.3189760446548462
1770950137367301000,10.790301025390624,-4.850208759307861,-0.6589508056640625,0.009305000305175781
1770950137386270000,10.80927001953125,-4.873476028442383,-0.25307321548461914,0.25159645080566406
1770950137405239000,10.828239013671874,-3.879140853881836,-0.3286776542663574,0.2699921131134033
1770950137424208000,10.847207763671875,-2.440603256225586,-0.595670223236084,0.1838129758834839
1770950137443177000,10.866177001953124,-1.1683731079101562,-0.7143096923828125,0.1133108139038086
1770950137462145800,10.885145751953125,-0.9624080657958984,-0.48641014099121094,-0.0070972442626953125
1770950137481115000,10.904114990234374,-1.7186121940612793,-0.09391355514526367,-0.20231389999389648
1770950137500083700,10.923083740234375,-1.9383916854858398,0.36524009704589844,-0.2895592451095581
1770950137519052500,10.942052490234374,-1.7166805267333984,0.8716468811035156,-0.17135262489318848
1770950137538021600,10.961021728515625,-1.24456787109375,1.2212986946105957,-0.11269652843475342
1770950137556990500,10.979990478515624,-0.47524547576904297,1.324669361114502,-0.08997714519500732
1770950137575959600,10.99895947265625,0.5363349914550781,1.3878083229064941,0.3865615129470825
1770950137594928400,11.017928466796874,1.3592853546142578,1.6072101593017578,1.1632637977600098
1770950137613897500,11.0368974609375,1.4093198776245117,1.8647332191467285,1.9160107374191284
1770950137632866300,11.0558662109375,0.7040233612060547,1.8797988891601562,2.0837807655334473
1770950137651835400,11.07483544921875,0.3320178985595703,1.837052822113037,1.1722331047058105
1770950137670804200,11.09380419921875,0.46965980529785156,1.9016766548156738,0.30009007453918457
1770950137689773000,11.11277294921875,1.807103157043457,2.2000036239624023,0.7953016757965088
1770950137708742100,11.1317421875,4.839883804321289,3.129404067993164,1.2820082902908325
1770950137727711000,11.1507109375,4.803160667419434,3.4924216270446777,2.466358184814453
1770950137746680000,11.16968017578125,4.482633590698242,1.576176643371582,2.4330801963806152
1770950137765649000,11.18864892578125,3.074373245239258,-1.0156588554382324,-0.38396990299224854
1770950137784618000,11.207617919921875,0.7175369262695312,-2.120338201522827,-2.407716751098633
1770950137803586800,11.2265869140625,-2.0881242752075195,-0.2481684684753418,-3.157351016998291
1770950137822555600,11.2455556640625,-2.4193663597106934,0.9890952110290527,-2.9067320823669434
1770950137841524700,11.264524658203126,0.4022188186645508,-0.06420373916625977,-1.815212607383728
1770950137860493600,11.28349365234375,3.578885078430176,-0.7646694183349609,-0.8508031368255615
1770950137879462400,11.30246240234375,3.1894426345825195,-0.8897891044616699,-0.43713927268981934
1770950137898431500,11.321431396484375,1.3810539245605469,-0.3044900894165039,-0.6136058568954468
1770950137917400300,11.340400390625,-1.474757194519043,0.24536657333374023,-0.550223708152771
1770950137936369200,11.359369140625,-3.8094539642333984,0.3064839839935303,-0.9221394062042236
1770950137955338200,11.378338134765626,-4.279826641082764,-0.0665132999420166,-1.3065377473831177
1770950137974307000,11.39730712890625,-3.6864147186279297,-0.6865673065185547,-1.6379637718200684
1770950137993276000,11.41627587890625,-3.1470260620117188,-0.839555025100708,-1.419211745262146
1770950138021729500,11.4447294921875,-1.8461227416992188,-0.6468842029571533,-0.6957070827484131
1770950138040698400,11.463698486328125,-0.6285238265991211,-0.5079555511474609,-0.6819064617156982
1770950138059667200,11.482667236328124,-0.4630908966064453,-0.48498010635375977,-0.9129282236099243
1770950138078636000,11.501635986328125,0.23480510711669922,-0.6914811134338379,-0.9860070943832397
1770950138097605000,11.520605224609374,2.38232421875,-0.8820993900299072,-1.0858033895492554
1770950138116574000,11.539573974609375,4.65192985534668,-1.3290905952453613,-1.2185914516448975
1770950138135542800,11.558542724609374,4.479156494140625,-1.221513271331787,-1.3101775646209717
1770950138154512000,11.577511962890625,3.0986595153808594,0.38651227951049805,-1.104501485824585
1770950138173480700,11.596480712890624,3.4639892578125,1.3229384422302246,-0.4190472364425659
1770950138192449500,11.615449462890625,5.93276309967041,0.07449531555175781,-0.04004251956939697
1770950138211418400,11.63441845703125,7.017918586730957,-1.360205888748169,-0.3828526735305786
1770950138230387500,11.653387451171875,5.429464340209961,-1.947962760925293,-1.2141118049621582
1770950138249356300,11.672356201171874,2.9303197860717773,-1.747119426727295,-1.3485575914382935
1770950138268325000,11.6913251953125,0.678196907043457,-0.628558874130249,-0.6502202749252319
1770950138287294200,11.710294189453125,-1.2680425643920898,-0.014850139617919922,-0.06380188465118408
1770950138306263000,11.729262939453125,-2.495957851409912,-0.3447442054748535,0.08752083778381348
1770950138325231900,11.74823193359375,-3.0992393493652344,-1.0158162117004395,0.1685228943824768
1770950138344200700,11.76720068359375,-3.618411064147949,-1.4396791458129883,0.30680352449417114
1770950138363169500,11.78616943359375,-4.14565896987915,-1.3573713302612305,0.2724267840385437
1770950138382138600,11.805138671875,-4.326563358306885,-1.1981828212738037,-0.01934683322906494
1770950138401107500,11.824107421875,-4.898659706115723,-1.124833345413208,-0.31638991832733154
1770950138420076300,11.843076171875,-4.913945198059082,-0.6432368755340576,-0.543434739112854
1770950138439045000,11.862045166015625,-3.091395854949951,-0.030363082885742188,-1.1061828136444092
1770950138458014200,11.88101416015625,-1.1667804718017578,-0.4266514778137207,-0.8846257328987122
1770950138476983000,11.899983154296875,1.2373733520507812,-0.5290014743804932,-0.7887721061706543
1770950138495952000,11.918951904296875,1.2625236511230469,-0.18647432327270508,-0.7966789603233337
1770950138514920700,11.937920654296875,0.6626625061035156,0.25098633766174316,-0.7691658735275269
1770950138533889500,11.9568896484375,-0.6031904220581055,0.36509275436401367,-0.6724879145622253
1770950138552858400,11.9758583984375,-1.322784423828125,0.5516548156738281,-0.7877171635627747
1770950138571827500,11.994827392578125,-1.3562707901000977,0.886742115020752,-0.7783592343330383
1770950138590796300,12.01379638671875,-0.5371885299682617,1.1437714099884033,-0.5373964309692383
1770950138609765400,12.032765380859376,0.6248378753662109,1.4070968627929688,-0.3784031271934509
1770950138628734200,12.051734130859375,1.5285701751708984,1.7060456275939941,-0.2536312937736511
1770950138647703000,12.070703125,2.024362564086914,2.024946928024292,-0.40839630365371704
1770950138666671900,12.089671875,2.752378463745117,2.2578117847442627,0.30331653356552124
1770950138685640700,12.108640625,3.680130958557129,2.350303888320923,1.2759714126586914
1770950138704609500,12.127609619140625,4.133434295654297,1.5687320232391357,1.6613248586654663
1770950138723578400,12.146578369140625,4.122783660888672,-0.14971566200256348,1.2992632389068604
1770950138742547500,12.16554736328125,3.7804460525512695,-1.7304688692092896,1.1624150276184082
1770950138761516300,12.184516357421876,3.6885061264038086,-2.5781266689300537,1.545668125152588
1770950138780485000,12.203485107421875,3.0896921157836914,-2.850964069366455,1.6864652633666992
1770950138799454000,12.222453857421876,2.0304574966430664,-2.7414286136627197,1.7189406156539917
1770950138818422800,12.2414228515625,0.7050418853759766,-2.0016613006591797,1.681931972503662
1770950138837391600,12.2603916015625,-0.598546028137207,-0.7187695503234863,1.622729778289795
1770950138856360400,12.2793603515625,-1.8398208618164062,0.42179036140441895,1.7102751731872559
1770950138875329500,12.29832958984375,-2.7237796783447266,0.45372605323791504,1.441574215888977
1770950138894298400,12.31729833984375,-2.8954720497131348,-0.10271620750427246,1.1050751209259033
1770950138913267200,12.33626708984375,-2.457751750946045,-0.4651622772216797,0.983511209487915
1770950138932236000,12.355236083984375,-2.0952272415161133,-0.3864452838897705,1.0497746467590332
1770950138951204900,12.374204833984376,-2.5900168418884277,-0.2441112995147705,1.1531774997711182
1770950138970173700,12.393173583984375,-3.162173271179199,0.06673741340637207,0.9971503615379333
1770950138989142500,12.412142578125,-3.606050491333008,0.5122277736663818,0.6381491422653198
1770950139008111400,12.431111328125,-3.403420925140381,0.7358176708221436,0.3051214814186096
1770950139027080200,12.450080078125,-2.725583076477051,0.780461311340332,-0.16112089157104492
1770950139046049000,12.469049072265625,-1.5175676345825195,0.6693809032440186,-0.5914769172668457
1770950139074502400,12.49750244140625,-1.2960844039916992,0.5725646018981934,-0.48717689514160156
1770950139093471200,12.51647119140625,-0.6929817199707031,0.9258227348327637,-0.6868909597396851
1770950139112440000,12.535440185546875,0.8758916854858398,0.9363691806793213,-1.3392832279205322
1770950139131409000,12.554408935546874,1.7147245407104492,0.3044114112854004,-1.7938013076782227
1770950139150377700,12.573377685546875,1.672037124633789,-0.09881591796875,-2.1270360946655273
1770950139169346600,12.5923466796875,2.434014320373535,0.44925665855407715,-1.8952968120574951
1770950139188315400,12.6113154296875,2.5054826736450195,1.721437692642212,-1.3374947309494019
1770950139207284200,12.6302841796875,1.6891050338745117,2.7707550525665283,-0.23723995685577393
1770950139226253000,12.649253173828125,2.593618392944336,2.6584441661834717,0.9185413122177124
1770950139245222100,12.66822216796875,4.526503562927246,1.0092847347259521,1.2941832542419434
1770950139264191000,12.68719091796875,4.302416801452637,-1.0520687103271484,-0.3591686487197876
1770950139283159800,12.706159912109374,2.7288713455200195,-2.3523082733154297,-1.9353530406951904
1770950139302128400,12.72512841796875,1.7039813995361328,-2.870147943496704,-2.1745989322662354
1770950139321097200,12.74409716796875,1.2526159286499023,-2.20393705368042,-1.019405722618103
1770950139340066300,12.76306640625,-1.1357908248901367,-0.7550573348999023,0.6118986010551453
1770950139359035100,12.78203515625,-2.537290573120117,-0.3024578094482422,1.6556529998779297
1770950139378004000,12.80100390625,-2.719670295715332,-0.3868141174316406,1.662713646888733
1770950139396972800,12.819972900390624,-2.1443848609924316,-0.9133820533752441,1.0361860990524292
1770950139415941400,12.83894140625,-1.0815906524658203,-1.557582139968872,0.3738830089569092
1770950139434910500,12.857910400390624,-0.7313899993896484,-2.028106212615967,-0.2886643409729004
1770950139463363600,12.886363525390625,-2.9978818893432617,-1.8497343063354492,-0.7345433235168457
1770950139482332400,12.90533251953125,-3.902240753173828,-1.250936508178711,-0.6907508969306946
1770950139501301200,12.92430126953125,-4.0336785316467285,-0.5748913288116455,-0.2507253885269165
1770950139520270000,12.94327001953125,-3.3748974800109863,0.08269190788269043,0.2629683315753937
1770950139539239000,12.962239013671875,-1.6907777786254883,0.7972757816314697,0.7122862339019775
1770950139558207700,12.981207763671875,-0.3744029998779297,0.9570281505584717,1.0063426494598389
1770950139577176600,13.000176513671875,-0.46538352966308594,0.7834482192993164,0.8478338718414307
1770950139596145400,13.0191455078125,-1.0623674392700195,0.6959471702575684,0.22576475143432617
1770950139615114200,13.0381142578125,-1.2123255729675293,0.5284543037414551,-0.3245643377304077
1770950139634083000,13.0570830078125,-1.0216679573059082,0.6007111072540283,-1.0182240009307861
1770950139653052000,13.076052001953125,0.41669559478759766,0.85951828956604,-0.6124413013458252
1770950139672020700,13.095020751953125,1.4076299667358398,1.0748820304870605,-0.36542391777038574
1770950139690989600,13.113989501953125,2.2191762924194336,0.7416894435882568,-0.08205068111419678
1770950139709958400,13.13295849609375,3.7100954055786133,0.3580436706542969,-0.0678749680519104
1770950139728927200,13.15192724609375,4.380312919616699,0.8593661785125732,0.2507135570049286
1770950139747896000,13.17089599609375,3.966933250427246,1.941833734512329,1.4103469848632812
1770950139766865000,13.189864990234375,3.171748161315918,2.421104669570923,2.2887096405029297
1770950139785833500,13.20883349609375,3.110295295715332,1.5380146503448486,2.1026322841644287
1770950139804802600,13.227802490234374,3.072005271911621,-0.32002949714660645,1.2708981037139893
1770950139823771400,13.246771484375,2.822216033935547,-1.3382723331451416,0.4196101427078247
1770950139842740000,13.265739990234374,1.6460275650024414,-1.6164952516555786,0.6763018369674683
1770950139861708800,13.284708740234375,0.09989738464355469,-1.1778407096862793,1.326927900314331
1770950139880677600,13.303677734375,-0.6635951995849609,-0.48384904861450195,1.604445457458496
1770950139899646500,13.322646484375,-1.0467920303344727,-0.12758541107177734,1.6095082759857178
1770950139918615300,13.341615234375,-1.5152926445007324,-0.1143796443939209,1.3810696601867676
1770950139937584000,13.360584228515625,-2.0254812240600586,-0.3734323978424072,0.8537717461585999
1770950139956553000,13.379552978515624,-2.3536252975463867,-0.7363455295562744,0.17477566003799438
1770950139975521800,13.398521728515625,-2.779916763305664,-1.1554083824157715,-0.2995510697364807
1770950139994490600,13.41749072265625,-3.19620418548584,-1.2707736492156982,-0.21910762786865234
1770950140013459200,13.436459228515625,-3.2723355293273926,-0.8716659545898438,0.018070518970489502
1770950140032428300,13.45542822265625,-3.1434264183044434,-0.425612211227417,0.15466952323913574
1770950140051396900,13.47439697265625,-3.0717363357543945,-0.23324823379516602,0.03579902648925781
1770950140070365700,13.49336572265625,-2.7711496353149414,-0.10824441909790039,-0.20593416690826416
1770950140089334500,13.51233447265625,-2.2327632904052734,0.1692795753479004,-0.37363582849502563
1770950140108303400,13.531303466796874,-1.9851188659667969,0.3689610958099365,-0.5967279672622681
1770950140127272200,13.550272216796875,-1.3897275924682617,0.4572911262512207,-0.7391842007637024
1770950140146241000,13.569240966796874,-1.0931005477905273,0.5196571350097656,-0.779708981513977
1770950140165209900,13.5882099609375,-0.7217683792114258,0.6140317916870117,-0.7566034197807312
1770950140184178700,13.6071787109375,0.05693531036376953,0.6565127372741699,-0.6048483848571777
1770950140203147300,13.626147216796875,1.0298500061035156,0.8235538005828857,-0.4597264528274536
1770950140222116000,13.6451162109375,2.2187070846557617,0.8496832847595215,-0.67635178565979
1770950140241085000,13.6640849609375,3.106429100036621,1.065422534942627,-1.421133041381836
1770950140260053800,13.6830537109375,3.1413097381591797,1.3970458507537842,-1.2443324327468872
1770950140279022300,13.702022216796875,3.7115707397460938,1.1557743549346924,-0.24171221256256104
1770950140297991200,13.7209912109375,4.96486759185791,0.27141356468200684,0.4415771961212158
1770950140316960300,13.739960205078125,5.365549087524414,-0.8392045497894287,-0.027370333671569824
1770950140335928800,13.7589287109375,3.8669939041137695,-1.2000017166137695,-0.9046814441680908
1770950140354897700,13.777897705078125,1.6129646301269531,-1.1074738502502441,-1.2105700969696045
1770950140373866500,13.796866455078124,-0.04099464416503906,-0.6871044635772705,-0.9613931179046631
1770950140392835300,13.81583544921875,-0.5156497955322266,-0.34512901306152344,-0.08378559350967407
1770950140411804200,13.83480419921875,-0.6198558807373047,-0.17960643768310547,0.8499152064323425
1770950140430772700,13.853772705078125,-0.8016328811645508,-0.29328036308288574,1.3140196800231934
1770950140449741800,13.872741943359374,-0.6976499557495117,-0.6735110282897949,1.2195169925689697
1770950140468710400,13.89171044921875,-1.1894416809082031,-1.2705848217010498,0.7459527254104614
1770950140487679200,13.91067919921875,-2.101741313934326,-1.6960525512695312,0.1650826334953308
1770950140506648000,13.92964794921875,-2.8809947967529297,-1.7238588333129883,-0.3453137278556824
1770950140525617000,13.948616943359376,-3.386580467224121,-1.4253802299499512,-0.6906406283378601
1770950140544585700,13.967585693359375,-3.6249704360961914,-0.9915597438812256,-0.7414549589157104
1770950140563554300,13.98655419921875,-3.6258034706115723,-0.590625524520874,-0.6090800762176514
1770950140582523100,14.005523193359375,-3.0032663345336914,-0.12459731101989746,-0.0665733814239502
1770950140601492000,14.024491943359376,-2.1112985610961914,0.4900069236755371,0.40992453694343567
1770950140620460800,14.043460693359375,-1.4356489181518555,0.9953570365905762,0.3950763940811157
1770950140639429600,14.0624296875,-1.1429157257080078,0.8499984741210938,0.27080535888671875
1770950140658398500,14.0813984375,-0.5077066421508789,0.5398960113525391,0.2581271529197693
1770950140677367000,14.100366943359376,0.2274341583251953,0.5616869926452637,0.04062625765800476
1770950140696336000,14.1193359375,1.1271142959594727,0.754063606262207,-0.022778213024139404
1770950140715304700,14.1383046875,1.4713878631591797,0.9704756736755371,-0.017976582050323486
1770950140734273500,14.1572734375,1.7114191055297852,1.2433266639709473,0.05000165104866028
1770950140753242400,14.176242431640626,2.113804817199707,1.4266843795776367,-0.059411704540252686
1770950140772211200,14.195211181640625,3.090749740600586,1.4491586685180664,0.257226824760437
1770950140791179800,14.2141796875,3.968581199645996,1.22892427444458,1.3678014278411865
1770950140810148600,14.233148681640625,4.0305070877075195,0.9529242515563965,2.4785609245300293
1770950140829117400,14.252117431640626,4.316435813903809,-0.126509428024292,2.8665599822998047
1770950140848086300,14.271086181640625,3.830428123474121,-1.1088333129882812,2.0094668865203857
1770950140867055000,14.29005517578125,2.745819091796875,-1.697256088256836,1.430757761001587
1770950140886023700,14.309023681640625,1.5004377365112305,-1.6159110069274902,1.5660617351531982
1770950140904992500,14.327992431640626,0.26651859283447266,-1.1438696384429932,2.030414342880249
1770950140923961300,14.34696142578125,-0.7296161651611328,-0.5881807804107666,2.104088306427002
1770950140942930200,14.36593017578125,-1.8130145072937012,-0.09418678283691406,1.8849897384643555
1770950140961899000,14.38489892578125,-2.358713150024414,0.05936384201049805,1.5952000617980957
1770950140980867800,14.403867919921876,-2.3469910621643066,-0.314100980758667,1.2084636688232422
1770950140999836400,14.42283642578125,-2.1948070526123047,-0.8738076686859131,0.5293756127357483
1770950141018805200,14.44180517578125,-2.379119873046875,-1.320054531097412,-0.003268897533416748
1770950141037774000,14.460774169921875,-2.769195556640625,-1.2365844249725342,-0.028328120708465576
1770950141056743000,14.479742919921875,-2.8410964012145996,-0.7414438724517822,0.15688961744308472
1770950141075711500,14.49871142578125,-2.765927314758301,-0.26944589614868164,0.17953377962112427
1770950141094680300,14.517680419921875,-2.6202030181884766,-0.057967185974121094,0.028878331184387207
1770950141113649200,14.536649169921875,-2.113096237182617,0.08174705505371094,-0.19582843780517578
1770950141132618000,14.555617919921875,-1.7467355728149414,0.30009889602661133,-0.35746699571609497
1770950141151586800,14.5745869140625,-1.4897170066833496,0.5932083129882812,-0.41952091455459595
1770950141170555600,14.5935556640625,-1.081174373626709,0.8288335800170898,-0.45453256368637085
1770950141189524200,14.612524169921874,-0.5913028717041016,0.9814000129699707,-0.6728979349136353
1770950141208493000,14.6314931640625,0.02737140655517578,0.8444395065307617,-0.9014684557914734
1770950141227462000,14.6504619140625,1.1251745223999023,0.7747986316680908,-1.069223165512085
1770950141246430700,14.6694306640625,1.8771629333496094,0.7277791500091553,-1.1996854543685913
1770950141265399300,14.6883994140625,2.5074710845947266,0.5987887382507324,-1.3843854665756226
1770950141284368100,14.7073681640625,3.0589513778686523,1.3037052154541016,-1.6730314493179321
1770950141303337000,14.7263369140625,2.4573278427124023,2.177582263946533,-1.0950641632080078
1770950141322305800,14.745305908203125,3.3319129943847656,2.093540906906128,-0.2864278554916382
1770950141341274600,14.764274658203124,4.352860450744629,0.535921573638916,-0.012050628662109375
1770950141360243200,14.7832431640625,3.890749931335449,-0.9585967063903809,-0.8764128684997559
1770950141379212000,14.8022119140625,2.2833595275878906,-1.6580862998962402,-1.9924216270446777
1770950141398180900,14.821180908203125,0.5205497741699219,-1.1032695770263672,-2.223076820373535
1770950141417149700,14.840149658203124,0.061244964599609375,-0.4626612663269043,-1.0574605464935303
1770950141436118300,14.8591181640625,-0.5058631896972656,-0.5667116641998291,0.07761260867118835
1770950141455087000,14.878087158203124,-1.275033950805664,-0.557572603225708,0.45610347390174866
1770950141474056000,14.897055908203125,-1.8087687492370605,-0.5576052665710449,0.8221186399459839
1770950141493024800,14.916024658203124,-1.905383586883545,-0.6698570251464844,1.1221444606781006
1770950141511993600,14.93499365234375,-2.259288787841797,-1.0138144493103027,0.9026267528533936
1770950141530962200,14.953962158203124,-2.693450927734375,-1.284839153289795,0.07232591509819031
1770950141549931000,14.972930908203125,-3.1580610275268555,-1.4812722206115723,-0.7528924345970154
1770950141568899800,14.99189990234375,-3.615550994873047,-1.4953670501708984,-1.2202610969543457
1770950141587868700,15.01086865234375,-3.6938319206237793,-1.2264766693115234,-1.3175592422485352
1770950141606837200,15.029837158203126,-3.3324050903320312,-0.8006386756896973,-1.0279345512390137
1770950141625806000,15.04880615234375,-2.844057083129883,-0.17511606216430664,-0.6014518737792969
1770950141644775000,15.06777490234375,-1.9686517715454102,0.4019961357116699,-0.1822511851787567
1770950141663743700,15.08674365234375,-1.4392900466918945,0.5302591323852539,0.0985129103064537
1770950141682712300,15.10571240234375,-0.49877357482910156,0.6093230247497559,0.1412881314754486
1770950141701681200,15.12468115234375,0.1827392578125,0.5366916656494141,0.005157977342605591
1770950141720650000,15.14364990234375,0.4958658218383789,0.5902962684631348,-0.06498275697231293
1770950141739618800,15.162618896484375,1.006108283996582,0.7518229484558105,-0.12950138747692108
1770950141758587600,15.181587646484376,1.8799209594726562,0.9713008403778076,0.03955771028995514
1770950141777556200,15.20055615234375,2.617818832397461,1.2125954627990723,0.14620915055274963
1770950141796525000,15.219525146484376,3.5028600692749023,1.3342506885528564,-0.1024756133556366
1770950141815494000,15.238493896484375,3.828927993774414,1.6638343334197998,0.20499993860721588
1770950141834462700,15.257462646484376,4.259657859802246,1.925196886062622,1.5570307970046997
1770950141853431300,15.276431396484375,3.929183006286621,2.08491587638855,2.3878087997436523
1770950141872400100,15.295400146484376,3.6655712127685547,1.1220173835754395,2.603681802749634
1770950141891369000,15.314368896484375,3.503143310546875,-0.6665563583374023,1.772457242012024
1770950141910337500,15.333337646484376,2.96384334564209,-2.0038700103759766,0.9571316242218018
1770950141929306400,15.352306396484375,2.0139665603637695,-2.774280071258545,0.9493401646614075
1770950141948275200,15.371275146484376,1.1850881576538086,-2.583754062652588,1.291407823562622
1770950141967244000,15.390244140625,0.3837242126464844,-1.4763202667236328,1.6170644760131836
1770950141986212900,15.409212890625,-0.9598236083984375,-0.4623544216156006,1.7902607917785645
1770950142005181400,15.428181396484375,-2.1364974975585938,0.020719289779663086,1.7063848972320557
1770950142024150300,15.447150390625,-3.099788188934326,0.09697723388671875,1.5037422180175781
1770950142043119000,15.466119140625,-3.417557716369629,-0.14068841934204102,1.0312247276306152
1770950142062087700,15.485087646484375,-3.459343433380127,-0.4717752933502197,0.28731662034988403
1770950142081056500,15.504056396484375,-3.632467269897461,-0.7568905353546143,-0.16605374217033386
1770950142100025300,15.523025390625,-3.6313095092773438,-0.6783788204193115,-0.1945214867591858
1770950142118994200,15.541994140625,-3.629161834716797,-0.39594507217407227,-0.023203283548355103
1770950142137962800,15.560962646484375,-3.438182830810547,-0.08265495300292969,0.012773871421813965
1770950142156931600,15.579931640625,-3.0747299194335938,0.1787726879119873,-0.16676798462867737
1770950142175900400,15.598900390625,-2.374007225036621,0.26944446563720703,-0.5226020216941833
1770950142194869000,15.617868896484374,-1.4043335914611816,0.1811966896057129,-0.8287361264228821
1770950142213837800,15.636837890625,-0.055583953857421875,0.2652859687805176,-0.9982259273529053
1770950142232806700,15.655806640625,0.7909011840820312,0.6637825965881348,-1.081420660018921
1770950142251775200,15.674775146484375,0.7908754348754883,1.0872838497161865,-0.8250462412834167
1770950142270744000,15.693744140625,1.1614570617675781,1.247488021850586,-0.4869162142276764
1770950142289713000,15.712712890625,1.7591190338134766,1.321855068206787,-0.47406744956970215
1770950142308681700,15.731681640625,2.1460962295532227,0.9285602569580078,-0.5919784307479858
1770950142327650300,15.750650390625,2.818690299987793,0.6143972873687744,-1.0261980295181274
1770950142346619100,15.769619140625,2.57388973236084,1.3755507469177246,-1.27587890625
1770950142365588000,15.788587890625,2.3093366622924805,1.8371539115905762,-0.5497536063194275
1770950142384556500,15.807556640625,3.4710512161254883,1.4831738471984863,-0.019711613655090332
1770950142403525400,15.826525390625,4.059080123901367,0.02356886863708496,-0.44399911165237427
1770950142422494200,15.845494140625,2.9318675994873047,-1.1333284378051758,-1.6866164207458496
1770950142441462800,15.864462890625,1.3196840286254883,-1.571302890777588,-1.9851975440979004
1770950142460431600,15.883431640625,0.6460752487182617,-1.228102207183838,-1.4121272563934326
1770950142479400400,15.902400390625,0.8918876647949219,-0.8610947132110596,-0.09726983308792114
1770950142498369000,15.921369140625,1.110621452331543,-0.815173864364624,0.8674183487892151
1770950142517337900,15.940337890625,0.5790624618530273,-0.905956506729126,1.1107186079025269
1770950142536306700,15.959306640625,-0.3981189727783203,-0.989612340927124,1.1706125736236572
1770950142555275300,15.978275146484375,-1.131181240081787,-1.0415005683898926,0.9964273571968079
1770950142574244000,15.997244140625,-1.5643625259399414,-1.0030832290649414,0.7718987464904785
1770950142593213000,16.016212890625,-2.1170578002929688,-0.801950216293335,0.4916656017303467
1770950142612181500,16.035181396484376,-3.129281520843506,-0.5996630191802979,0.07293295860290527
1770950142631150300,16.054150390625,-3.71079158782959,-0.6680972576141357,-0.5133650302886963
1770950142650119200,16.073119140625,-3.8733038902282715,-0.6901435852050781,-0.8332886695861816
1770950142669087700,16.092087646484377,-3.671443462371826,-0.33938050270080566,-0.8464661836624146
1770950142688056600,16.111056640625,-3.3978271484375,0.11031365394592285,-0.23292553424835205
1770950142707025400,16.130025390625,-2.9851555824279785,0.6734819412231445,0.1659834384918213
1770950142725994000,16.148993896484374,-2.3891115188598633,1.0429420471191406,0.11960452795028687
1770950142744962800,16.167962890625,-1.881035327911377,0.9298038482666016,-0.06615269184112549
1770950142763931600,16.186931640625,-1.2811956405639648,0.7042183876037598,-0.27719801664352417
1770950142782900200,16.205900146484375,-0.4867725372314453,0.837580680847168,-0.4706038236618042
1770950142801869000,16.224869140625,0.14368534088134766,1.082718849182129,-0.48005837202072144
1770950142820837600,16.243837646484376,0.8470478057861328,1.1965439319610596,-0.2594134211540222
1770950142839806500,16.262806396484375,1.389378547668457,1.3172671794891357,0.018328368663787842
1770950142858775300,16.281775390625,2.3143787384033203,1.28645920753479,0.09413671493530273
1770950142877744000,16.300744140625,3.557316780090332,1.5605621337890625,-0.18059974908828735
1770950142896712700,16.319712646484376,4.327919960021973,1.9871251583099365,0.9182263612747192
1770950142915681300,16.338681396484375,5.429843902587891,2.361591100692749,2.389345169067383
1770950142934650000,16.357650146484374,4.4433441162109375,2.2332353591918945,2.984020233154297
1770950142953619000,16.376618896484374,3.4195079803466797,0.5296614170074463,2.5611751079559326
1770950142972587800,16.395587890625,2.648686408996582,-1.6358555555343628,1.9615862369537354
1770950142991556400,16.414556396484375,2.845211982727051,-3.1495070457458496,1.5523951053619385
1770950143010525200,16.433525146484374,3.078950881958008,-3.9897236824035645,1.7834968566894531
1770950143029493800,16.45249365234375,2.7023439407348633,-3.828340530395508,1.3441100120544434
1770950143048462600,16.471462646484376,1.265671730041504,-2.7080705165863037,1.2336483001708984
1770950143067431200,16.49043115234375,-0.21580123901367188,-1.015519142150879,1.436336874961853
1770950143086400000,16.50939990234375,-1.7238240242004395,0.5850155353546143,1.6247687339782715
1770950143105368800,16.528368896484373,-2.8959946632385254,1.3918893337249756,1.5435867309570312
1770950143124337400,16.54733740234375,-3.504124164581299,0.8396050930023193,1.1724549531936646
1770950143143306200,16.56630615234375,-3.1346006393432617,-0.20341849327087402,0.7567071914672852
1770950143162274800,16.58527490234375,-2.9516897201538086,-0.5729825496673584,0.3189474940299988
1770950143181243600,16.60424365234375,-3.3625030517578125,-0.6632416248321533,0.09166586399078369
1770950143200212200,16.623212158203124,-4.010398864746094,-0.5599768161773682,0.18600302934646606
1770950143219181000,16.64218115234375,-4.341768264770508,-0.31543445587158203,0.29403093457221985
1770950143238150000,16.66114990234375,-4.23122501373291,-0.033351898193359375,0.1681990623474121
1770950143257118500,16.680118408203125,-3.6154661178588867,0.09924650192260742,-0.17984652519226074
1770950143276087300,16.69908740234375,-2.6572513580322266,0.05223417282104492,-0.1265324354171753
1770950143295056000,16.718055908203127,-1.474776268005371,0.16231036186218262,0.41634583473205566
1770950143314024700,16.737024658203126,-0.3206338882446289,0.4692044258117676,0.6765483021736145
1770950143332993500,16.75599365234375,0.32204627990722656,0.8019263744354248,0.5730132460594177
1770950143351962000,16.774962158203124,0.04524040222167969,0.9512548446655273,0.09937107563018799
1770950143370931000,16.793930908203127,0.06758403778076172,1.4026603698730469,-0.30021315813064575
1770950143389899500,16.8128994140625,0.8152170181274414,2.078535318374634,-0.52718186378479
1770950143408868400,16.831868408203125,1.8540267944335938,2.7557897567749023,-0.2239283323287964
1770950143427837000,16.8508369140625,2.7149553298950195,3.2127633094787598,-0.18378078937530518
1770950143446805800,16.8698056640625,3.921839714050293,3.0346744060516357,-0.8778534531593323
1770950143465774300,16.8887744140625,5.271318435668945,2.2922308444976807,-1.302574872970581
1770950143484743200,16.9077431640625,5.431917190551758,1.226036787033081,-0.5158029198646545
1770950143503712000,16.9267119140625,5.241158485412598,0.639561653137207,-1.2550685405731201
1770950143522680600,16.9456806640625,3.8436508178710938,0.12352991104125977,-2.551283836364746
1770950143541649400,16.9646494140625,2.18923282623291,-0.5355062484741211,-2.8863744735717773
1770950143560618000,16.983617919921876,3.406865119934082,-1.8659236431121826,-2.9864282608032227
1770950143579586800,17.0025869140625,4.487096786499023,-3.404021739959717,-2.801002264022827
1770950143598555400,17.021555419921874,4.889654159545898,-4.501339912414551,-1.9365944862365723
1770950143617524200,17.040524169921873,4.141323089599609,-4.659769535064697,-1.3457269668579102
1770950143636492800,17.059492919921876,2.346196174621582,-3.982100009918213,-0.9870891571044922
1770950143655461600,17.078461669921875,0.16339969635009766,-2.4356207847595215,-0.9017964005470276
1770950143674430200,17.09743017578125,-1.650221824645996,-1.123940110206604,-1.185375690460205
1770950143693399000,17.11639892578125,-2.0978832244873047,-0.6781072616577148,-1.3864003419876099
1770950143712367600,17.13536767578125,-1.9707298278808594,-0.8599104881286621,-1.4638539552688599
1770950143731336400,17.15433642578125,-1.9228076934814453,-0.7066545486450195,-1.547478437423706
1770950143750305000,17.173304931640626,-2.002049446105957,-0.2508254051208496,-1.470129370689392
1770950143769273900,17.19227392578125,-1.9803714752197266,-0.05252838134765625,-1.574548602104187
1770950143788242400,17.211242431640624,-2.2896060943603516,-0.11935019493103027,-1.7857458591461182
1770950143807211300,17.230211181640627,-2.476736545562744,-0.3976600170135498,-1.9803558588027954
1770950143826179800,17.249179931640626,-2.442962646484375,-0.7650566101074219,-2.104017734527588
1770950143845148700,17.268148681640625,-2.2437028884887695,-1.158686637878418,-2.214205503463745
1770950143864117200,17.2871171875,-1.9960784912109375,-1.5249767303466797,-2.048966646194458
1770950143883086000,17.306086181640627,-1.774129867553711,-1.7686803340911865,-1.7069945335388184
1770950143902054700,17.3250546875,-2.158552646636963,-1.6925692558288574,-1.3299729824066162
1770950143921023500,17.3440234375,-2.685683250427246,-1.2875113487243652,-0.8952557444572449
1770950143939992000,17.362991943359376,-2.6793994903564453,-0.7650737762451172,-0.6609094738960266
1770950143958961000,17.3819609375,-2.572472095489502,-0.09554648399353027,-0.566011369228363
1770950143977929500,17.400929443359374,-2.7670798301696777,0.5997800827026367,-0.5574536919593811
1770950143996898000,17.41989794921875,-2.667731285095215,1.130028486251831,-0.544032633304596
1770950144015867000,17.438866943359375,-1.212918758392334,1.3518810272216797,-0.4027897119522095
1770950144034835500,17.45783544921875,0.9470911026000977,1.213597059249878,-0.03842782974243164
1770950144053804300,17.47680419921875,2.881502151489258,1.335251808166504,-0.15350808203220367
1770950144072772900,17.49577294921875,4.210535049438477,1.187309741973877,0.09562772512435913
1770950144091741700,17.51474169921875,5.456116676330566,0.7497406005859375,1.1569244861602783
1770950144110710300,17.533710205078126,5.5975494384765625,0.6765429973602295,2.1928656101226807
1770950144129679000,17.55267919921875,3.9658279418945312,0.602808952331543,2.6498827934265137
1770950144148647700,17.571647705078124,1.4976158142089844,1.0200774669647217,2.460178852081299
1770950144167616500,17.590616455078123,-0.018250465393066406,0.8577961921691895,1.7571394443511963
1770950144186585000,17.609585205078126,0.8082609176635742,-1.199101209640503,0.7696882486343384
1770950144205554000,17.628553955078125,2.312204360961914,-2.880075454711914,0.0499192476272583
1770950144224522500,17.6475224609375,2.0630569458007812,-3.5761749744415283,-0.0700032114982605
1770950144243491000,17.666490966796875,1.537466049194336,-2.9027905464172363,-0.1475486159324646
1770950144262460000,17.6854599609375,-0.1555156707763672,-1.568652629852295,0.28400999307632446
1770950144281428500,17.704428466796877,-1.049520492553711,-0.583568811416626,0.7314830422401428
1770950144300397300,17.723397216796876,-1.8529529571533203,-0.13457179069519043,1.0456702709197998
1770950144319366000,17.742365966796875,-2.422502040863037,0.005364179611206055,0.919005811214447
1770950144338334500,17.76133447265625,-2.892648220062256,-0.11714529991149902,0.40010350942611694
1770950144357303300,17.78030322265625,-3.2143115997314453,-0.41288185119628906,-0.0743054747581482
1770950144376272000,17.79927197265625,-3.297107696533203,-0.5121047496795654,-0.39181095361709595
1770950144395240400,17.818240478515627,-3.0583181381225586,-0.37743186950683594,-0.3512316942214966
1770950144414209300,17.837209228515626,-3.2268714904785156,-0.07578682899475098,-0.03761786222457886
1770950144433177900,17.856177734375,-3.500121593475342,0.44295740127563477,0.11637264490127563
1770950144452146700,17.875146728515624,-3.761828899383545,1.0781233310699463,0.04483872652053833
1770950144471115300,17.894115234375,-3.406527519226074,1.6657817363739014,-0.1400509476661682
1770950144490084000,17.913083984375,-2.4843578338623047,1.8692646026611328,-0.2549475431442261
1770950144509052700,17.932052734375,-1.3094525337219238,1.7835056781768799,-0.5470131635665894
1770950144528021500,17.951021484375,-0.5946826934814453,1.5702967643737793,-0.874604344367981
1770950144546990000,17.969989990234374,-0.10933971405029297,1.3686425685882568,-1.3860851526260376
1770950144565958700,17.988958740234374,0.23621749877929688,1.0925085544586182,-1.8083693981170654
1770950144584927200,18.00792724609375,0.8409109115600586,0.864893913269043,-2.167520761489868
1770950144603896000,18.02689599609375,1.7424964904785156,0.8671958446502686,-2.4604084491729736
1770950144622864600,18.04586474609375,3.502779960632324,0.4767475128173828,-2.2871251106262207
1770950144641833500,18.06483349609375,5.597983360290527,0.3440847396850586,-1.820816993713379
1770950144660802000,18.083802001953124,4.6392107009887695,1.260188102722168,-1.3589112758636475
1770950144679771000,18.10277099609375,3.0674352645874023,1.6885910034179688,-1.0050058364868164
1770950144698739500,18.121739501953126,2.4931039810180664,0.7823021411895752,-1.0857603549957275
1770950144717708000,18.1407080078125,1.6921463012695312,-0.47496604919433594,-1.906907558441162
1770950144736676600,18.159676513671876,-0.036197662353515625,-0.6419899463653564,-2.533142328262329
1770950144755645400,18.1786455078125,-1.399205207824707,-0.4720580577850342,-2.407377004623413
1770950144774614000,18.197614013671874,-0.5098114013671875,-0.5728130340576172,-1.1080970764160156
1770950144793582800,18.216582763671877,0.9032011032104492,-0.9186131954193115,0.45374250411987305
1770950144812551400,18.235551513671876,1.1596126556396484,-1.306135654449463,1.542579174041748
1770950144831520000,18.25452001953125,0.7287788391113281,-1.7131881713867188,2.339634895324707
1770950144850488600,18.273488525390626,-0.08954429626464844,-1.7901957035064697,2.6117489337921143
1770950144869457400,18.29245751953125,-1.4400367736816406,-1.6223371028900146,2.366182565689087
1770950144888426000,18.311426025390624,-2.6824569702148438,-1.5183162689208984,1.5954595804214478
1770950144907394600,18.33039453125,-3.7879953384399414,-1.753549575805664,1.122012972831726
1770950144926363400,18.34936328125,-4.5720109939575195,-1.6193664073944092,1.1443486213684082
1770950144945332000,18.36833203125,-4.9265594482421875,-0.8304100036621094,1.5908455848693848
1770950144964300500,18.387300537109375,-4.763817310333252,0.19531726837158203,1.5396792888641357
1770950144983269400,18.406269287109374,-3.796515464782715,0.8890151977539062,1.3490257263183594
1770950145002238000,18.425238037109374,-2.321852684020996,1.0237462520599365,1.3165779113769531
1770950145021206800,18.444206787109376,-0.7983837127685547,1.1375455856323242,1.1155184507369995
1770950145040175400,18.46317529296875,0.46993064880371094,1.2618002891540527,0.7696917057037354
1770950145059144000,18.48214404296875,1.1749401092529297,1.1676628589630127,0.49123191833496094
1770950145078112800,18.50111279296875,1.7291107177734375,0.8676891326904297,0.22866976261138916
1770950145097081300,18.520081298828124,2.6255855560302734,0.1822340488433838,0.043820977210998535
1770950145116050000,18.5390498046875,3.0808963775634766,-0.41777491569519043,-0.24418163299560547
1770950145135018500,18.5580185546875,3.0140228271484375,-0.3533589839935303,-0.4715815782546997
1770950145153987300,18.5769873046875,3.022043228149414,0.158339262008667,0.08573567867279053
1770950145172956000,18.595955810546876,3.682793617248535,0.849327564239502,0.6052926778793335
1770950145191924500,18.614924560546875,4.533002853393555,0.24146676063537598,1.1632543802261353
1770950145210893000,18.63389306640625,5.42360782623291,-1.514386773109436,0.4167635440826416
1770950145229862000,18.65286181640625,5.527631759643555,-3.090792417526245,-0.6659939885139465
1770950145248830500,18.67183056640625,5.337525367736816,-3.8698434829711914,-0.7459786534309387
1770950145267799300,18.69079931640625,4.26950740814209,-3.201939821243286,-0.2652129530906677
1770950145286767900,18.709767822265626,1.9538850784301758,-1.3044912815093994,0.5240154266357422
1770950145305736400,18.728736328125,-0.5674266815185547,0.5901510715484619,1.7277475595474243
1770950145324705000,18.747705078125,-2.3951377868652344,1.7553925514221191,2.512573719024658
1770950145343673900,18.766673828125,-3.3991737365722656,1.6397724151611328,2.1896276473999023
1770950145362642400,18.785642333984374,-3.2309417724609375,0.8289287090301514,0.8060968518257141
1770950145381611000,18.804611083984376,-3.46321964263916,-0.3162829875946045,0.027501795440912247
1770950145400579800,18.823579833984375,-3.550344467163086,-0.7132935523986816,-0.612628161907196
1770950145419548200,18.842548095703126,-3.6430273056030273,-0.6678905487060547,-0.8096628189086914
1770950145438517000,18.86151708984375,-3.6296634674072266,-0.31126952171325684,-0.8435488939285278
1770950145457485600,18.880485595703124,-3.4456310272216797,0.22175049781799316,-0.6145888566970825
1770950145476454100,18.8994541015625,-2.959362030029297,0.734656810760498,-0.36259371042251587
1770950145495423000,18.918423095703126,-2.613492488861084,1.1535022258758545,-0.34600573778152466
1770950145514391600,18.9373916015625,-1.870244026184082,1.4760878086090088,-0.33467862010002136
1770950145533360000,18.956360107421876,-0.858159065246582,1.646733283996582,-0.2319367527961731
1770950145552328700,18.97532861328125,0.37192440032958984,1.6942479610443115,-0.13499021530151367
1770950145571297500,18.994297607421874,1.982839584350586,1.3257887363433838,-0.07302439212799072
1770950145590266000,19.01326611328125,2.9404468536376953,0.5450470447540283,-0.19856643676757812
1770950145609234700,19.032234619140624,2.946965217590332,-0.0053179264068603516,-0.7241190671920776
1770950145628203300,19.051203369140627,2.237245559692383,-0.052353858947753906,-1.2279198169708252
1770950145647172000,19.070172119140626,1.8009042739868164,0.4871532917022705,-1.7459884881973267
1770950145666140700,19.089140625,1.3776912689208984,1.2993955612182617,-1.4256370067596436
1770950145685109200,19.108109130859376,2.736875534057617,1.2172279357910156,-0.5085848569869995
1770950145704078000,19.127078125,4.267584800720215,0.03605246543884277,0.013745784759521484
1770950145723046400,19.14604638671875,3.710574150085449,-1.2231972217559814,-0.8560441732406616
1770950145742015200,19.16501513671875,1.4472532272338867,-2.1629223823547363,-2.1848466396331787
1770950145760983800,19.18398388671875,-0.017040252685546875,-1.9838030338287354,-2.724118232727051
1770950145779952400,19.202952392578126,-0.20007705688476562,-1.3323144912719727,-1.8518997430801392
1770950145798921000,19.2219208984375,0.2787332534790039,-0.8278934955596924,-0.4419569969177246
1770950145817889800,19.240889892578124,-0.5553455352783203,-0.6192383766174316,0.5703579783439636
1770950145836858400,19.2598583984375,-1.9869604110717773,-0.5764820575714111,1.4566301107406616
1770950145855827000,19.278826904296874,-3.1010799407958984,-0.7102344036102295,1.9173197746276855
1770950145874795800,19.297795654296873,-3.2235231399536133,-0.9357833862304688,1.5620713233947754
1770950145893764000,19.31676416015625,-2.621438503265381,-1.5866024494171143,0.44408178329467773
1770950145912733000,19.33573291015625,-2.2513980865478516,-2.0281014442443848,-0.2632429003715515
1770950145931701500,19.354701416015626,-2.466003894805908,-2.2361464500427246,-0.8452767133712769
1770950145950670000,19.373670166015625,-2.584228038787842,-2.149203300476074,-1.1294457912445068
1770950145969639000,19.392638916015624,-3.1692686080932617,-1.4584107398986816,-1.054943561553955
1770950145988607500,19.411607421875,-3.188541889190674,-0.34488582611083984,-0.8661851286888123
1770950146007576000,19.430576171875,-2.742216110229492,0.14376020431518555,-0.2854683995246887
1770950146026544600,19.449544677734377,-1.7242002487182617,0.5094161033630371,0.31443238258361816
1770950146045513200,19.46851318359375,-0.5503206253051758,0.9411885738372803,0.5934726595878601
1770950146064481800,19.487481689453126,0.9005775451660156,1.09031081199646,0.6490478515625
1770950146083450600,19.50645068359375,1.4986209869384766,0.9232358932495117,0.4418226480484009
1770950146102419200,19.525419189453125,1.5224266052246094,0.7871227264404297,0.2767444849014282
1770950146121387800,19.5443876953125,1.5993223190307617,0.9062128067016602,0.13560450077056885
1770950146140356600,19.563356689453126,2.327775001525879,0.9835069179534912,-0.0200766921043396
1770950146159325200,19.5823251953125,3.3156585693359375,0.8706119060516357,-0.07103961706161499
1770950146178293800,19.601293701171876,4.097588539123535,0.8768460750579834,0.8405879735946655
1770950146197262300,19.620262451171875,4.459373474121094,1.458676815032959,1.9177608489990234
1770950146216231000,19.63923095703125,4.348466873168945,1.4912915229797363,2.7967708110809326
1770950146235199700,19.65819970703125,4.251091003417969,0.06467890739440918,2.341287612915039
1770950146254168300,19.677168212890624,3.684281349182129,-1.6485836505889893,1.1975469589233398
1770950146273137000,19.696136962890623,2.6349754333496094,-2.5221400260925293,0.48916149139404297
1770950146292105500,19.71510546875,1.475961685180664,-2.55291748046875,0.5645197033882141
1770950146311074300,19.73407421875,0.4183368682861328,-1.7226064205169678,1.119097352027893
1770950146330043000,19.75304296875,-0.4040994644165039,-0.6097438335418701,1.8610873222351074
1770950146349011500,19.772011474609375,-1.6472930908203125,0.06668353080749512,2.2541489601135254
1770950146367980000,19.79097998046875,-2.7179031372070312,0.4155566692352295,1.8550262451171875
1770950146386948600,19.809948486328125,-3.361104965209961,0.0776362419128418,1.112182855606079
1770950146405917400,19.82891748046875,-3.6998276710510254,-0.5432426929473877,0.43677884340286255
1770950146424886000,19.847885986328127,-3.8174262046813965,-0.7761361598968506,-0.002614736557006836
1770950146443854600,19.8668544921875,-3.750542163848877,-0.6573259830474854,-0.062202632427215576
1770950146462823200,19.8858232421875,-3.68977689743042,-0.3357701301574707,0.14464539289474487
1770950146481791700,19.904791748046875,-3.404109001159668,-0.012245655059814453,0.24439221620559692
1770950146500760600,19.923760498046875,-2.6154890060424805,0.17878961563110352,0.18921077251434326
1770950146519729200,19.942729248046874,-1.5683917999267578,0.27393054962158203,0.05499398708343506
1770950146538697700,19.96169775390625,-0.7421884536743164,0.3352210521697998,-0.025302767753601074
1770950146557666300,19.980666259765623,-0.2751731872558594,0.5238783359527588,-0.09848988056182861
1770950146576635100,19.99963525390625,0.45485877990722656,0.786156415939331,-0.23283064365386963
1770950146595603700,20.018603759765625,0.9643611907958984,0.8574292659759521,-0.5933583974838257
1770950146614572300,20.037572265625,1.1627388000488281,0.586437463760376,-1.0311272144317627
1770950146633540900,20.056540771484375,1.3172607421875,0.29672694206237793,-1.6312379837036133
1770950146652509400,20.075509521484374,1.3597841262817383,0.26472020149230957,-1.7365599870681763
1770950146671478300,20.094478271484373,1.9983158111572266,1.0530543327331543,-1.8852497339248657
1770950146690446800,20.11344677734375,2.0328359603881836,2.119358777999878,-1.7163233757019043
1770950146709415400,20.13241552734375,2.6315441131591797,1.9513359069824219,-0.6934822797775269
1770950146728384000,20.151384033203126,3.0440492630004883,0.6061339378356934,0.13044774532318115
1770950146747352800,20.170352783203125,3.1792402267456055,-0.5765190124511719,-0.7450461387634277
1770950146766321400,20.1893212890625,2.0316267013549805,-1.3290786743164062,-1.877865195274353
1770950146785290000,20.2082900390625,1.4981679916381836,-1.5835721492767334,-2.1209025382995605
1770950146804258800,20.2272587890625,1.0103473663330078,-1.3280391693115234,-1.0251312255859375
1770950146823227400,20.246227294921876,0.5122776031494141,-0.7108767032623291,0.6015063524246216
1770950146842196000,20.265196044921876,0.3197593688964844,-0.3779876232147217,1.364124059677124
1770950146861164500,20.28416455078125,-0.15047740936279297,-0.5718429088592529,1.4510936737060547
1770950146880133000,20.303133056640625,-1.0836095809936523,-0.6944000720977783,1.390804648399353
1770950146899101700,20.322101806640624,-1.5752840042114258,-0.5802295207977295,1.3379648923873901
1770950146918070500,20.341070556640624,-2.302432060241699,-0.24672269821166992,1.2163811922073364
1770950146937039000,20.3600390625,-2.805150032043457,-0.02771902084350586,0.842147946357727
1770950146956007700,20.379007568359373,-3.1538496017456055,-0.24249005317687988,0.2661243677139282
1770950146974976500,20.3979765625,-3.230897903442383,-0.41795778274536133,-0.3929360508918762
1770950146993945000,20.416945068359375,-3.148183822631836,-0.2966883182525635,-0.7331439256668091
1770950147012913700,20.43591357421875,-2.630990982055664,0.04834270477294922,-0.4117323160171509
1770950147031882200,20.45488232421875,-1.9967141151428223,0.5915169715881348,0.1255352795124054
1770950147050851000,20.47385107421875,-1.1659517288208008,0.9554920196533203,0.5265315175056458
1770950147069819600,20.492819580078127,-0.3794088363647461,0.9362823963165283,0.4839952290058136
1770950147088788200,20.511788330078126,0.3374366760253906,0.5919721126556396,-0.0351259708404541
1770950147107756800,20.5307568359375,0.8556861877441406,0.31597208976745605,-0.2673206925392151
1770950147126725400,20.549725341796876,1.062790870666504,0.5138688087463379,-0.14352232217788696
1770950147145694200,20.568694091796875,1.6267318725585938,0.7214055061340332,-0.04238075017929077
1770950147164662800,20.587662841796874,2.3664398193359375,0.49712324142456055,0.19427239894866943
1770950147183631400,20.60663134765625,2.9405336380004883,0.41257190704345703,0.456887423992157
1770950147202600000,20.625599853515624,3.8175268173217773,0.6272375583648682,1.5354106426239014
1770950147221568800,20.64456884765625,4.488298416137695,1.108280897140503,2.620464563369751
1770950147240537300,20.663537353515625,4.27484130859375,0.8423037528991699,3.1743950843811035
1770950147259506000,20.682505859375,3.9261646270751953,-0.6714030504226685,2.3636398315429688
1770950147278474800,20.701474853515624,2.930386543273926,-1.722883701324463,1.25205659866333
1770950147297443300,20.720443359375,2.242063522338867,-2.245467185974121,0.8282461762428284
1770950147316412000,20.739411865234374,1.321573257446289,-1.978407382965088,0.7702786922454834
1770950147335380500,20.75838037109375,-0.027223587036132812,-0.9569747447967529,1.3072420358657837
1770950147354349000,20.77734912109375,-1.278651237487793,0.059328556060791016,1.836459755897522
1770950147373317600,20.796317626953126,-2.4346818923950195,0.6576776504516602,1.8359671831130981
1770950147392286500,20.815286376953125,-3.1912269592285156,0.6359443664550781,1.3330817222595215
1770950147411255000,20.834255126953124,-3.6848978996276855,0.17307400703430176,0.880892276763916
1770950147430223600,20.8532236328125,-3.6620306968688965,-0.25114011764526367,0.501198410987854
1770950147449192400,20.8721923828125,-3.4961509704589844,-0.39623045921325684,-0.01765596866607666
1770950147468161000,20.8911611328125,-3.560673713684082,-0.3516521453857422,-0.4326045513153076
1770950147487129600,20.910129638671876,-3.473353385925293,-0.1446056365966797,-0.38050377368927
1770950147506098200,20.92909814453125,-2.816836357116699,0.14260387420654297,-0.18125993013381958
1770950147525067000,20.94806689453125,-1.979583740234375,0.467435359954834,-0.15069007873535156
1770950147544035600,20.96703564453125,-0.7333774566650391,0.6429219245910645,-0.0578618049621582
1770950147563004200,20.986004150390624,0.34850311279296875,0.6094961166381836,-0.13046610355377197
1770950147581972700,21.00497265625,1.0615224838256836,0.503277063369751,-0.4387211203575134
1770950147600941300,21.02394140625,1.2183771133422852,0.4981977939605713,-0.7369590997695923
1770950147619910100,21.04291015625,1.051335334777832,0.5180683135986328,-0.6666122674942017
1770950147638878700,21.061878662109375,1.3540754318237305,0.44866490364074707,-0.6856343746185303
1770950147657847300,21.080847412109375,1.241434097290039,0.6265068054199219,-0.8833417892456055
1770950147676816000,21.09981591796875,1.4193763732910156,0.9183750152587891,-1.1652840375900269
1770950147695784700,21.11878466796875,1.9342308044433594,1.3938021659851074,-1.0241725444793701
1770950147714753300,21.137753173828123,3.2609119415283203,1.380547046661377,-0.372239351272583
1770950147733721900,21.156721923828126,4.24554443359375,0.8770797252655029,-0.2588299512863159
1770950147752690400,21.1756904296875,4.063663482666016,-0.4550004005432129,-0.6806385517120361
1770950147771659000,21.194658935546876,3.4580392837524414,-1.3583191633224487,-1.756604790687561
1770950147790627800,21.2136279296875,1.9104948043823242,-1.7090628147125244,-2.374904155731201
1770950147809596400,21.232596435546874,0.5542335510253906,-1.6410648822784424,-2.53835129737854
1770950147828565000,21.25156494140625,-0.2393360137939453,-1.3012981414794922,-1.889026165008545
1770950147847533600,21.270533447265624,-1.3871536254882812,-1.3032795190811157,-0.7799854278564453
1770950147866502100,21.289502197265627,-2.334141731262207,-1.0064246654510498,0.21649616956710815
1770950147885471000,21.308470947265626,-2.3324084281921387,-0.47922325134277344,0.5563796162605286
1770950147904439600,21.327439453125,-2.4203996658325195,-0.05817842483520508,0.6711380481719971
1770950147923408100,21.346408203125,-2.8955349922180176,-0.04471564292907715,0.8563160300254822
1770950147942376700,21.365376708984375,-3.538705825805664,-0.21160125732421875,0.8669770956039429
1770950147961345500,21.384345458984374,-4.068120956420898,-0.3214893341064453,0.08530092239379883
1770950147980314000,21.403314208984376,-4.1570844650268555,-0.34464478492736816,-0.7341516017913818
1770950147999282700,21.42228271484375,-4.069988250732422,-0.4993736743927002,-0.9878758192062378
1770950148018251300,21.441251220703126,-3.3745107650756836,-0.39351582527160645,-0.7406271696090698
1770950148037219800,21.4602197265625,-2.3098392486572266,0.09280729293823242,-0.1477724313735962
1770950148056188400,21.4791884765625,-0.7118253707885742,0.640373706817627,0.39959967136383057
1770950148075157200,21.4981572265625,0.851618766784668,0.9908413887023926,0.36962687969207764
1770950148094125800,21.517125732421874,1.4755573272705078,0.7339222431182861,0.13449108600616455
1770950148113094400,21.536094482421873,1.424642562866211,0.21638989448547363,-0.3347358703613281
1770950148132063000,21.55506298828125,1.8889226913452148,0.11030912399291992,-0.5736974477767944
1770950148151031800,21.57403173828125,2.989434242248535,0.158036470413208,-0.609372615814209
1770950148170000400,21.59300048828125,3.527568817138672,-0.03241610527038574,-0.26846933364868164
1770950148188969000,21.611968994140625,3.8276920318603516,0.22330498695373535,-0.11479711532592773
1770950148207937500,21.6309375,3.986166000366211,0.7655601501464844,0.8696833848953247
1770950148226906000,21.649906005859375,4.705670356750488,1.2512059211730957,1.7018190622329712
1770950148245875000,21.668875,4.218294143676758,1.196516990661621,1.6392707824707031
1770950148264843300,21.68784326171875,3.1477270126342773,0.5205862522125244,1.2840640544891357
1770950148283812600,21.7068125,2.542365074157715,-0.42079806327819824,0.9575875997543335
1770950148302780700,21.72578076171875,1.969304084777832,-1.4213659763336182,0.7042412757873535
1770950148321749200,21.744749267578126,1.3457422256469727,-1.9640145301818848,0.8826268911361694
1770950148340718000,21.763718017578125,0.28464698791503906,-1.754316806793213,1.0541666746139526
1770950148359686400,21.782686279296875,-1.2595939636230469,-0.9330339431762695,1.3074909448623657
1770950148378655200,21.8016552734375,-1.5625710487365723,0.1437516212463379,1.9109879732131958
1770950148397623800,21.820623779296874,-1.9367289543151855,0.4490079879760742,2.2431318759918213
1770950148416592400,21.83959228515625,-2.037588119506836,0.4431948661804199,1.703650951385498
1770950148435561000,21.85856103515625,-2.572190761566162,-0.11927580833435059,0.8520755767822266
1770950148454529500,21.877529541015626,-3.0886192321777344,-0.6021647453308105,0.398112416267395
1770950148473498400,21.896498291015625,-2.818136215209961,-0.6134376525878906,0.2361772060394287
1770950148492466700,21.915466796875,-2.365774631500244,-0.4758024215698242,0.5182170867919922
1770950148511435500,21.934435546875,-2.719757080078125,-0.282456636428833,0.6162987947463989
1770950148530404000,21.953404052734374,-2.942196846008301,-0.1326899528503418,0.3417905569076538
1770950148549372700,21.97237255859375,-2.6080384254455566,-0.03818964958190918,-0.13330531120300293
1770950148568341200,21.99134130859375,-2.3115339279174805,0.032586097717285156,-0.6482187509536743
1770950148587309800,22.010309814453127,-1.6750402450561523,0.28578639030456543,-0.8751969337463379
1770950148606278700,22.029278564453126,-0.6989240646362305,0.488558292388916,-0.8443241119384766
1770950148625247200,22.048247314453125,0.4934272766113281,0.6017305850982666,-0.5254215002059937
1770950148644215800,22.0672158203125,1.3721017837524414,0.48256826400756836,-0.4233654737472534
1770950148663184400,22.086184326171875,1.4445524215698242,0.36733531951904297,-0.9615986347198486
1770950148682153000,22.105153076171874,0.9885540008544922,0.2858443260192871,-1.6361327171325684
1770950148701121500,22.12412158203125,0.8382558822631836,0.7308616638183594,-2.278233051300049
1770950148720090000,22.143090087890624,1.4672603607177734,1.2496185302734375,-1.9695405960083008
1770950148739058700,22.16205859375,3.1738500595092773,1.308119297027588,-0.8655904531478882
1770950148758027500,22.181027587890625,4.94216251373291,0.7504348754882812,0.11284446716308594
1770950148776996000,22.19999609375,4.796765327453613,-0.7071607112884521,-0.5802173614501953
1770950148795964700,22.218964599609375,3.2655982971191406,-1.8909733295440674,-1.9645633697509766
1770950148814933200,22.237933349609374,1.5823040008544922,-2.1778199672698975,-2.6081700325012207
1770950148833901800,22.25690185546875,0.30379199981689453,-1.51666259765625,-2.06404447555542
1770950148852870400,22.275870361328124,-0.4221677780151367,-0.7768280506134033,-0.5423391461372375
1770950148871839000,22.2948388671875,-0.9993753433227539,-0.4116630554199219,0.7015016078948975
1770950148890807600,22.3138076171875,-1.6268749237060547,-0.2632937431335449,1.157047986984253
1770950148909776100,22.332776123046877,-2.0638246536254883,-0.32373499870300293,1.2869887351989746
1770950148928745000,22.351744873046876,-2.3348770141601562,-0.4733619689941406,1.3258178234100342
1770950148947713300,22.37071337890625,-2.666506767272949,-0.6121833324432373,1.1071157455444336
1770950148966682000,22.38968212890625,-3.172494888305664,-0.6589717864990234,0.7079741954803467
1770950148985650700,22.408650634765625,-3.7804861068725586,-0.6372604370117188,0.3720967769622803
1770950149004619300,22.427619384765624,-4.164685249328613,-0.442673921585083,0.06741178035736084
1770950149023587800,22.446587890625,-4.102518558502197,-0.22988367080688477,0.09612482786178589
1770950149042556400,22.465556396484374,-3.386784553527832,0.09986186027526855,0.15638083219528198
1770950149061525000,22.48452490234375,-2.5220508575439453,0.4506850242614746,0.08698731660842896
1770950149080493600,22.50349365234375,-1.7643241882324219,0.7057900428771973,-0.13854050636291504
1770950149099462100,22.522462158203126,-0.9092025756835938,0.9599606990814209,-0.4664672613143921
1770950149118430700,22.5414306640625,-0.576350212097168,1.0196640491485596,-0.6189100742340088
1770950149137399300,22.5603994140625,0.3820619583129883,1.1219661235809326,-0.46440011262893677
1770950149156368000,22.579367919921875,1.961075782775879,0.9644618034362793,-0.3428778052330017
1770950149175336400,22.59833642578125,2.656254768371582,0.5839216709136963,-0.614355206489563
1770950149194305000,22.617304931640625,2.97152042388916,0.22884607315063477,-0.6533335447311401
1770950149213273600,22.636273681640624,3.593867301940918,0.20929789543151855,-0.3755892515182495
1770950149232242200,22.6552421875,4.8183746337890625,0.09460210800170898,0.37081313133239746
1770950149251210800,22.674210693359374,5.501655578613281,0.0769813060760498,0.4562607407569885
1770950149270179300,22.693179443359377,5.356844902038574,0.009253501892089844,0.5661303997039795
1770950149289148000,22.71214794921875,5.150110244750977,-0.48320508003234863,0.7788123488426208
1770950149308116500,22.731116455078126,4.398955345153809,-1.4661505222320557,0.4573404788970947
1770950149327085000,22.7500849609375,3.544650077819824,-2.6302826404571533,0.14928841590881348
1770950149346053600,22.7690537109375,2.455693244934082,-2.9530649185180664,0.19306325912475586
1770950149365022200,22.788022216796875,1.1844406127929688,-2.007235288619995,0.9018450975418091
1770950149383990800,22.80699072265625,-0.08786678314208984,-0.8592603206634521,1.6699999570846558
1770950149402959400,22.82595947265625,-1.2827177047729492,0.0321812629699707,2.0805187225341797
1770950149421928000,22.844927978515624,-2.378234386444092,0.5052239894866943,1.9334733486175537
1770950149440896500,22.863896484375,-3.169671058654785,0.5469493865966797,1.5197861194610596
1770950149459865000,22.882864990234374,-3.724857807159424,0.17031216621398926,1.360289216041565
1770950149478833700,22.901833740234373,-4.080106735229492,-0.17190766334533691,1.297748327255249
1770950149497802200,22.92080224609375,-4.079980850219727,-0.19489455223083496,1.2348954677581787
1770950149516770800,22.939770751953127,-4.0344743728637695,0.10103750228881836,0.9710420966148376
1770950149535739400,22.958739501953126,-4.032574653625488,0.39251160621643066,0.693146824836731
1770950149554708000,22.9777080078125,-4.021442413330078,0.5756430625915527,0.3187218904495239
1770950149573676500,22.996676513671876,-3.4369630813598633,0.7160871028900146,0.064505934715271
1770950149592645000,23.01564501953125,-2.4668350219726562,0.8216574192047119,-0.34791862964630127
1770950149611613700,23.03461376953125,-1.4115700721740723,0.9677000045776367,-0.8233100175857544
1770950149630582300,23.053582275390625,-0.22930240631103516,1.0291974544525146,-1.0370151996612549
1770950149649550800,23.07255078125,0.5294065475463867,1.0343098640441895,-1.2580152750015259
1770950149668519400,23.09151953125,1.2512893676757812,0.8584175109863281,-1.56418776512146
1770950149687488000,23.110488037109373,1.8518686294555664,0.6690540313720703,-2.0243890285491943
1770950149706456600,23.12945654296875,2.595125198364258,0.5182080268859863,-2.3712384700775146
1770950149725425200,23.148425048828123,3.6081762313842773,0.6935117244720459,-3.095122814178467
1770950149744393500,23.1673935546875,3.6452856063842773,0.9732532501220703,-3.110661029815674
1770950149763362000,23.186362060546877,4.318415641784668,1.4307091236114502,-2.228274345397949
1770950149782330600,23.20533056640625,5.444281578063965,1.4875612258911133,-1.240028738975525
1770950149801299200,23.22429931640625,5.678973197937012,0.0940852165222168,-1.350508689880371
1770950149820267800,23.243267822265626,3.969135284423828,-1.492795705795288,-2.3580846786499023
1770950149839236400,23.262236328125,1.8450870513916016,-2.238492965698242,-2.9498584270477295
1770950149858205000,23.281204833984376,0.21077251434326172,-2.043069362640381,-2.27996826171875
1770950149877173500,23.300173583984375,0.04668712615966797,-1.5104780197143555,-0.3582504987716675
1770950149896142000,23.31914208984375,0.3020191192626953,-1.130467414855957,1.3212307691574097
1770950149915110700,23.338110595703125,0.09023380279541016,-1.1557176113128662,2.031848907470703
1770950149934079200,23.357079345703124,-1.014012336730957,-1.4816794395446777,1.9877667427062988
1770950149953047600,23.376047607421874,-2.343209743499756,-1.7761332988739014,1.7820377349853516
1770950149972016000,23.39501611328125,-3.2667222023010254,-1.8895013332366943,1.673917531967163
1770950149990984700,23.413984619140624,-4.118442535400391,-1.8282732963562012,1.661035180091858
1770950150009953300,23.432953369140623,-4.679027557373047,-1.4522976875305176,1.5256015062332153
1770950150028921900,23.451921875,-5.137157440185547,-0.7961544990539551,1.4241151809692383
1770950150047890400,23.470890380859377,-5.153109073638916,-0.1561145782470703,1.2857836484909058
1770950150066859000,23.48985888671875,-4.198799133300781,0.4245443344116211,1.020249843597412
1770950150085827300,23.508827392578127,-3.007388114929199,0.6871838569641113,0.8711466193199158
1770950150104796000,23.5277958984375,-1.9076452255249023,1.01328444480896,0.8168642520904541
1770950150123764500,23.546764404296876,-0.5647850036621094,1.3590326309204102,0.7230814695358276
1770950150142733000,23.565733154296876,0.8481550216674805,1.4245615005493164,0.5536481142044067
1770950150161701400,23.584701416015626,1.5884685516357422,1.2952420711517334,0.15437322854995728
1770950150180670000,23.603669921875,2.0542678833007812,1.0291004180908203,-0.11858916282653809
1770950150199638500,23.622638427734376,2.6699743270874023,0.8525903224945068,-0.3038609027862549
1770950150218607000,23.641607177734375,2.787980079650879,0.6946322917938232,-0.25866973400115967
1770950150237575700,23.66057568359375,3.22329044342041,0.46568942070007324,-0.2210613489151001
1770950150256544300,23.679544189453125,4.095851898193359,0.24019622802734375,0.46935319900512695
1770950150275512800,23.698512939453124,4.8313751220703125,0.317216157913208,1.1226662397384644
1770950150294481200,23.717481201171875,4.275233268737793,0.4125380516052246,1.5221761465072632
1770950150313449700,23.73644970703125,3.8493080139160156,-0.31533360481262207,1.5445597171783447
1770950150332418300,23.755418212890625,3.492690086364746,-1.59808349609375,0.9532026648521423
1770950150351387000,23.774386962890624,2.312192916870117,-2.63244366645813,0.17072391510009766
1770950150370355500,23.79335546875,0.865077018737793,-2.8891968727111816,0.20172715187072754
1770950150389323800,23.81232373046875,-0.0693197250366211,-2.046163558959961,1.1336017847061157
1770950150408292400,23.831292236328125,0.017251968383789062,-0.8320763111114502,2.3009963035583496
1770950150427261000,23.850260986328124,0.19311141967773438,-0.022037029266357422,2.974184513092041
1770950150446229500,23.8692294921875,-0.6056537628173828,0.0777277946472168,2.863846778869629
1770950150465197800,23.88819775390625,-2.178154945373535,-0.2437291145324707,2.2941718101501465
1770950150484166400,23.90716650390625,-3.547630786895752,-0.5013415813446045,1.6129602193832397
1770950150503135000,23.926135009765623,-4.3368330001831055,-0.5963642597198486,1.147606611251831
1770950150522103600,23.945103515625,-4.463100433349609,-0.5196695327758789,0.9738221764564514
1770950150541072000,23.96407177734375,-4.267488479614258,-0.2922060489654541,0.9060773849487305
1770950150560040400,23.98304052734375,-3.87479829788208,-0.007304668426513672,0.6373003721237183
