time,seconds_elapsed,z,y,x
1770950126753942500,0.176942626953125,7.772581100463867,4.329647541046143,-4.124502182006836
1770950126772911900,0.195911865234375,8.127253532409668,3.7170352935791016,-4.037546157836914
1770950126791881500,0.214881591796875,8.345654487609863,3.265373468399048,-3.982180595397949
1770950126810851000,0.23385107421875,8.426934242248535,3.0066096782684326,-4.014656066894531
1770950126829820400,0.2528203125,8.44435977935791,2.9631237983703613,-4.010370254516602
1770950126848790000,0.2717900390625,8.432915687561035,3.165452241897583,-3.877657890319824
1770950126867759400,0.29075927734375,8.478805541992188,3.3382840156555176,-3.624375104904175
1770950126886729000,0.30972900390625,8.611495018005371,3.307917833328247,-3.327192783355713
1770950126905697500,0.328697509765625,8.771516799926758,3.162705183029175,-3.037792444229126
1770950126924668000,0.34766796875,8.906495094299316,3.037937879562378,-2.7596495151519775
1770950126943637500,0.366637451171875,8.988990783691406,3.003220558166504,-2.519740581512451
1770950126962607000,0.385607177734375,9.023689270019531,3.070991277694702,-2.3048722743988037
1770950126981576400,0.404576416015625,9.022215843200684,3.224057674407959,-2.0917608737945557
1770950127000546000,0.423546142578125,8.988646507263184,3.4429242610931396,-1.8764013051986694
1770950127019515600,0.442515625,8.931252479553223,3.697768211364746,-1.652159333229065
1770950127038485000,0.461485107421875,8.86749267578125,3.9388859272003174,-1.4223716259002686
1770950127057454600,0.48045458984375,8.807416915893555,4.141088962554932,-1.2046496868133545
1770950127076424200,0.499424072265625,8.754999160766602,4.303203582763672,-1.0014026165008545
1770950127095393800,0.518393798828125,8.711577415466309,4.428956985473633,-0.8143371939659119
1770950127114363100,0.537363037109375,8.679313659667969,4.5153350830078125,-0.6720553040504456
1770950127133332700,0.556332763671875,8.657103538513184,4.570091247558594,-0.5824220180511475
1770950127152302300,0.57530224609375,8.672574996948242,4.548464298248291,-0.5179734826087952
1770950127171271700,0.594271728515625,8.749323844909668,4.400702953338623,-0.503521203994751
1770950127190241300,0.6132412109375,8.878072738647461,4.131616115570068,-0.5291089415550232
1770950127209211000,0.6322109375,9.008213996887207,3.8355696201324463,-0.5575690269470215
1770950127228180200,0.65118017578125,9.103902816772461,3.605073928833008,-0.5410841107368469
1770950127247149800,0.67014990234375,9.1450777053833,3.505032777786255,-0.50267493724823
1770950127266119400,0.689119384765625,9.139229774475098,3.5297317504882812,-0.4311092495918274
1770950127285089000,0.708089111328125,9.11493968963623,3.602325916290283,-0.3339504599571228
1770950127304058400,0.727058349609375,9.097087860107422,3.653942823410034,-0.24917307496070862
1770950127323028000,0.746028076171875,9.094244956970215,3.6635520458221436,-0.20853187143802643
1770950127341997600,0.76499755859375,9.10074234008789,3.6472206115722656,-0.21131673455238342
1770950127360967000,0.783966796875,9.10179328918457,3.642238140106201,-0.24867461621761322
1770950127379936500,0.8029365234375,9.084758758544922,3.680279493331909,-0.30511316657066345
1770950127398906000,0.821906005859375,9.042837142944336,3.776397705078125,-0.36919301748275757
1770950127417875500,0.84087548828125,8.979690551757812,3.917980909347534,-0.4300672709941864
1770950127436845000,0.859844970703125,8.906896591186523,4.075932502746582,-0.4736556112766266
1770950127455814700,0.878814697265625,8.834212303161621,4.227719306945801,-0.5034735798835754
1770950127474784300,0.8977841796875,8.76882553100586,4.358134746551514,-0.5336021184921265
1770950127493753600,0.916753662109375,8.717401504516602,4.455538749694824,-0.5705013871192932
1770950127512723200,0.93572314453125,8.683465003967285,4.516493320465088,-0.6075534820556641
1770950127531692800,0.95469287109375,8.66244125366211,4.550805568695068,-0.6501368880271912
1770950127550662400,0.973662353515625,8.639344215393066,4.582804203033447,-0.7280195951461792
1770950127569632000,0.992632080078125,8.608981132507324,4.621339321136475,-0.8360942602157593
1770950127588601300,1.011601318359375,8.579434394836426,4.655599594116211,-0.9429016709327698
1770950127607571000,1.030571044921875,8.56469440460205,4.6667160987854,-1.0188939571380615
1770950127626540500,1.04954052734375,8.561177253723145,4.6600565910339355,-1.0772677659988403
1770950127645510100,1.06851025390625,8.558002471923828,4.66050386428833,-1.1003068685531616
1770950127683449000,1.106448974609375,8.57700252532959,4.648349285125732,-0.9991359114646912
1770950127702418700,1.125418701171875,8.596088409423828,4.6210856437683105,-0.9608487486839294
1770950127721388300,1.14438818359375,8.595562934875488,4.62591552734375,-0.9421119689941406
1770950127740357600,1.163357666015625,8.572091102600098,4.681711673736572,-0.8781965374946594
1770950127759327200,1.1823271484375,8.540423393249512,4.759669780731201,-0.759672999382019
1770950127778296800,1.201296875,8.524078369140625,4.807697772979736,-0.6296961307525635
1770950127797266400,1.220266357421875,8.539348602294922,4.791025638580322,-0.5440365672111511
1770950127825720600,1.248720458984375,8.599852561950684,4.682042121887207,-0.5398210883140564
1770950127844690200,1.267690185546875,8.630353927612305,4.62057638168335,-0.5810824632644653
1770950127863659800,1.28665966796875,8.638798713684082,4.600839138031006,-0.6114152073860168
1770950127882629400,1.30562939453125,8.630449295043945,4.615143775939941,-0.6214428544044495
1770950127901599000,1.324598876953125,8.61598014831543,4.641626358032227,-0.6249706149101257
1770950127920568300,1.343568359375,8.605925559997559,4.660344123840332,-0.6241946816444397
1770950127939538000,1.362537841796875,8.607412338256836,4.660696983337402,-0.6006023287773132
1770950127958507500,1.381507568359375,8.617021560668945,4.649501800537109,-0.5472180843353271
1770950127977477000,1.40047705078125,8.626883506774902,4.638626575469971,-0.4800203740596771
1770950127996446700,1.41944677734375,8.634186744689941,4.630435943603516,-0.4245801866054535
1770950128015416000,1.438416015625,8.639204025268555,4.623352527618408,-0.39893385767936707
1770950128034385700,1.4573857421875,8.643084526062012,4.616233825683594,-0.3973393440246582
1770950128053355300,1.476355224609375,8.646893501281738,4.60874080657959,-0.4014035165309906
1770950128072324900,1.495324951171875,8.651686668395996,4.600300312042236,-0.3948899209499359
1770950128091294200,1.514294189453125,8.661022186279297,4.583868980407715,-0.38108161091804504
1770950128110263800,1.533263916015625,8.678104400634766,4.5529913902282715,-0.3621731698513031
1770950128129233400,1.5522333984375,8.696710586547852,4.518553733825684,-0.34684157371520996
1770950128148203000,1.571203125,8.707387924194336,4.498848915100098,-0.3348885178565979
1770950128167172600,1.590172607421875,8.706899642944336,4.500751495361328,-0.321757435798645
1770950128186142200,1.60914208984375,8.708883285522461,4.497550010681152,-0.3126896321773529
1770950128205111800,1.62811181640625,8.730823516845703,4.454964637756348,-0.3105003833770752
1770950128224081200,1.6470810546875,8.770044326782227,4.377052307128906,-0.3132135570049286
1770950128243050800,1.66605078125,8.800891876220703,4.312923431396484,-0.3366900384426117
1770950128262020400,1.685020263671875,8.805769920349121,4.298705101013184,-0.3872031569480896
1770950128280990000,1.703989990234375,8.795656204223633,4.314455032348633,-0.43850892782211304
1770950128299959300,1.722959228515625,8.787908554077148,4.327598571777344,-0.4636091887950897
1770950128318929000,1.741928955078125,8.782747268676758,4.338070392608643,-0.46356573700904846
1770950128337898500,1.7608984375,8.772310256958008,4.360535621643066,-0.4502154290676117
1770950128356868000,1.7798681640625,8.752612113952637,4.39988899230957,-0.45070385932922363
1770950128375837700,1.798837646484375,8.722844123840332,4.455899715423584,-0.4768034517765045
1770950128394807300,1.817807373046875,8.685845375061035,4.524196147918701,-0.5080599784851074
1770950128413777000,1.83677685546875,8.643792152404785,4.602135181427002,-0.5249730944633484
1770950128432746500,1.85574658203125,8.598910331726074,4.684053897857666,-0.5373591780662537
1770950128451715800,1.8747158203125,8.553977012634277,4.76250696182251,-0.5642611980438232
1770950128470685400,1.893685546875,8.51150131225586,4.832674503326416,-0.6082706451416016
1770950128489655000,1.912655029296875,8.472464561462402,4.893412113189697,-0.6650072932243347
1770950128508624600,1.931624755859375,8.435944557189941,4.947492599487305,-0.726328432559967
1770950128527594000,1.950593994140625,8.396822929382324,5.005037307739258,-0.7831729054450989
1770950128546563600,1.9695634765625,8.353175163269043,5.070830345153809,-0.8255491256713867
1770950128565533200,1.988533203125,8.310721397399902,5.135293006896973,-0.8550289273262024
1770950128584502800,2.007502685546875,8.274948120117188,5.188176155090332,-0.8822969198226929
1770950128603472400,2.026472412109375,8.247511863708496,5.225666046142578,-0.9172472357749939
1770950128622442000,2.04544189453125,8.229968070983887,5.246041297912598,-0.9576267600059509
1770950128641411600,2.06441162109375,8.224614143371582,5.2487711906433105,-0.9881818890571594
1770950128660381200,2.083381103515625,8.226812362670898,5.242426872253418,-1.0034475326538086
1770950128679350800,2.102350830078125,8.220402717590332,5.248580455780029,-1.0236009359359741
1770950128698320100,2.121320068359375,8.210579872131348,5.258478164672852,-1.0512731075286865
1770950128717289700,2.140289794921875,8.22097396850586,5.234260559082031,-1.0901809930801392
1770950128736259300,2.15925927734375,8.27155876159668,5.143697261810303,-1.1375808715820312
1770950128755229000,2.17822900390625,8.345282554626465,5.00771427154541,-1.203930377960205
1770950128774198500,2.197198486328125,8.40470027923584,4.8925676345825195,-1.2626101970672607
1770950128793168100,2.216168212890625,8.43606948852539,4.8420915603637695,-1.2479063272476196
1770950128812137700,2.2351376953125,8.44724178314209,4.844842910766602,-1.1584466695785522
1770950128831107000,2.254107177734375,8.461546897888184,4.844025611877441,-1.0526310205459595
1770950128850076700,2.27307666015625,8.504579544067383,4.78101921081543,-0.9921576380729675
1770950128869046300,2.29204638671875,8.582066535949707,4.6409711837768555,-0.9899063110351562
1770950128888016000,2.311015869140625,8.669583320617676,4.463149070739746,-1.0435601472854614
1770950128906985500,2.3299853515625,8.73681640625,4.303786277770996,-1.1471065282821655
1770950128925954800,2.348954833984375,8.771754264831543,4.196987152099609,-1.2696454524993896
1770950128944924400,2.36792431640625,8.782844543457031,4.143716812133789,-1.3644152879714966
1770950128963894000,2.38689404296875,8.788578033447266,4.121870040893555,-1.3933682441711426
1770950128982863600,2.405863525390625,8.79369068145752,4.119711875915527,-1.3672446012496948
1770950129001833200,2.424833251953125,8.791666984558105,4.138658046722412,-1.3222997188568115
1770950129020802800,2.443802734375,8.779263496398926,4.174436569213867,-1.2918992042541504
1770950129039772400,2.4627724609375,8.75959300994873,4.213688850402832,-1.2979732751846313
1770950129058742000,2.481741943359375,8.738740921020508,4.24444580078125,-1.337716817855835
1770950129077711600,2.500711669921875,8.718693733215332,4.264241695404053,-1.4039263725280762
1770950129096681000,2.519680908203125,8.703583717346191,4.276767730712891,-1.4585225582122803
1770950129115650600,2.538650634765625,8.692292213439941,4.293369770050049,-1.4769643545150757
1770950129134620200,2.5576201171875,8.680146217346191,4.320644378662109,-1.4688328504562378
1770950129153589800,2.57658984375,8.664837837219238,4.357265472412109,-1.4509342908859253
1770950129172559400,2.595559326171875,8.650903701782227,4.3924760818481445,-1.4277253150939941
1770950129191529000,2.614529052734375,8.644610404968262,4.41636323928833,-1.3917032480239868
1770950129210498600,2.63349853515625,8.64333724975586,4.434839248657227,-1.3398889303207397
1770950129229468200,2.65246826171875,8.634220123291016,4.4669270515441895,-1.2911971807479858
1770950129248437800,2.671437744140625,8.61336898803711,4.513841152191162,-1.2670780420303345
1770950129267407000,2.690406982421875,8.588574409484863,4.553066730499268,-1.2947440147399902
1770950129286376700,2.709376708984375,8.57478141784668,4.554605484008789,-1.378064751625061
1770950129305346300,2.72834619140625,8.57632064819336,4.516805171966553,-1.488481044769287
1770950129324316000,2.74731591796875,8.574529647827148,4.483169078826904,-1.5965622663497925
1770950129343285500,2.766285400390625,8.556732177734375,4.49014949798584,-1.6707099676132202
1770950129362254800,2.7852548828125,8.538651466369629,4.519200801849365,-1.684828758239746
1770950129381224400,2.804224365234375,8.54706859588623,4.518270015716553,-1.6441571712493896
1770950129400194000,2.823194091796875,8.585220336914062,4.468239784240723,-1.5808955430984497
1770950129419163600,2.84216357421875,8.637908935546875,4.386011600494385,-1.523097276687622
1770950129438133200,2.86113330078125,8.693462371826172,4.287465572357178,-1.4871931076049805
1770950129457102800,2.880102783203125,8.738758087158203,4.199117183685303,-1.4737361669540405
1770950129476072400,2.899072509765625,8.760708808898926,4.150745391845703,-1.4804332256317139
1770950129495041800,2.918041748046875,8.759954452514648,4.14803409576416,-1.4924499988555908
1770950129514011400,2.937011474609375,8.74697494506836,4.174306869506836,-1.495313048362732
1770950129532981000,2.95598095703125,8.732685089111328,4.206270217895508,-1.4892566204071045
1770950129551950600,2.97495068359375,8.723888397216797,4.227951526641846,-1.4793838262557983
1770950129570920200,2.993920166015625,8.721211433410645,4.2370829582214355,-1.4690145254135132
1770950129589889800,3.012889892578125,8.723634719848633,4.237665176391602,-1.4528512954711914
1770950129608859400,3.031859375,8.726292610168457,4.2360358238220215,-1.4415940046310425
1770950129627829000,3.0508291015625,8.719486236572266,4.2436137199401855,-1.4603698253631592
1770950129646798300,3.06979833984375,8.702600479125977,4.260580539703369,-1.510816216468811
1770950129665768000,3.088767822265625,8.685561180114746,4.271890640258789,-1.575546383857727
1770950129684737500,3.107737548828125,8.67981243133545,4.260554313659668,-1.6367440223693848
1770950129703707100,3.12670703125,8.683110237121582,4.232700347900391,-1.69063138961792
1770950129722676700,3.1456767578125,8.687810897827148,4.21159029006958,-1.7189631462097168
1770950129741646000,3.16464599609375,8.669243812561035,4.240533828735352,-1.7413990497589111
1770950129760615700,3.18361572265625,8.622632026672363,4.319451332092285,-1.7784639596939087
1770950129779585300,3.202585205078125,8.581538200378418,4.39168119430542,-1.8002028465270996
1770950129798555000,3.221554931640625,8.559296607971191,4.423527240753174,-1.827903151512146
1770950129817524500,3.2405244140625,8.54973030090332,4.429566383361816,-1.857807993888855
1770950129836494000,3.259494140625,8.54730224609375,4.437211513519287,-1.8507243394851685
1770950129855463700,3.278463623046875,8.54776668548584,4.460785865783691,-1.7909365892410278
1770950129874433300,3.297433349609375,8.551570892333984,4.493552207946777,-1.687900185585022
1770950129893402600,3.316402587890625,8.560026168823242,4.520043849945068,-1.5702050924301147
1770950129912372200,3.335372314453125,8.573042869567871,4.526479244232178,-1.4779423475265503
1770950129931341800,3.354341796875,8.59263801574707,4.500133037567139,-1.4442181587219238
1770950129950311200,3.373311279296875,8.616497039794922,4.445045471191406,-1.472393274307251
1770950129969280800,3.39228076171875,8.64237117767334,4.373872756958008,-1.5326621532440186
1770950129988250400,3.41125048828125,8.664132118225098,4.308422088623047,-1.5939610004425049
1770950130007220000,3.430219970703125,8.67371654510498,4.276149272918701,-1.6283671855926514
1770950130026189600,3.449189453125,8.669523239135742,4.291912078857422,-1.6091117858886719
1770950130045159200,3.4681591796875,8.653554916381836,4.350862503051758,-1.5350444316864014
1770950130064128800,3.487128662109375,8.629427909851074,4.434332847595215,-1.4283041954040527
1770950130083098000,3.50609814453125,8.606725692749023,4.512980937957764,-1.3144030570983887
1770950130102067700,3.525067626953125,8.596394538879395,4.560207843780518,-1.215269923210144
1770950130121037300,3.544037353515625,8.598377227783203,4.574592113494873,-1.1451570987701416
1770950130140007000,3.5630068359375,8.602028846740723,4.574794769287109,-1.1165698766708374
1770950130158976500,3.5819765625,8.598808288574219,4.58005952835083,-1.1197926998138428
1770950130177945900,3.60094580078125,8.589317321777344,4.595350742340088,-1.1299370527267456
1770950130196915500,3.61991552734375,8.578474998474121,4.612854957580566,-1.1409252882003784
1770950130215885000,3.638885009765625,8.567437171936035,4.628782749176025,-1.1592103242874146
1770950130234854400,3.6578544921875,8.556328773498535,4.642792701721191,-1.184946060180664
1770950130253824000,3.676823974609375,8.548768997192383,4.6520676612854,-1.2030003070831299
1770950130272793600,3.695793701171875,8.55445671081543,4.644017696380615,-1.1936386823654175
1770950130291763200,3.71476318359375,8.575535774230957,4.605654239654541,-1.191016674041748
1770950130310732800,3.73373291015625,8.617209434509277,4.519149303436279,-1.2212265729904175
1770950130329702100,3.7527021484375,8.674307823181152,4.394983291625977,-1.2692102193832397
1770950130348671700,3.771671630859375,8.723881721496582,4.289261817932129,-1.2909327745437622
1770950130367641300,3.790641357421875,8.74374008178711,4.259466648101807,-1.2547239065170288
1770950130386611000,3.80961083984375,8.725878715515137,4.316652774810791,-1.181498646736145
1770950130405580300,3.828580322265625,8.694418907165527,4.401478290557861,-1.0974853038787842
1770950130424550000,3.8475498046875,8.67438793182373,4.450981616973877,-1.0555263757705688
1770950130443519500,3.86651953125,8.675655364990234,4.442566871643066,-1.0802736282348633
1770950130462489000,3.885489013671875,8.690939903259277,4.392855167388916,-1.1579207181930542
1770950130481458700,3.904458740234375,8.703272819519043,4.340981483459473,-1.2567062377929688
1770950130500428000,3.923427978515625,8.70283317565918,4.315884590148926,-1.3432191610336304
1770950130519397600,3.942397705078125,8.691244125366211,4.322537422180176,-1.3958247900009155
1770950130538367200,3.9613671875,8.674369812011719,4.350613117218018,-1.4134565591812134
1770950130557336800,3.9803369140625,8.656946182250977,4.3847126960754395,-1.4149113893508911
1770950130576306200,3.99930615234375,8.639287948608398,4.4158477783203125,-1.4259637594223022
1770950130595275800,4.01827587890625,8.620116233825684,4.4409918785095215,-1.4634066820144653
1770950130614245400,4.037245361328125,8.598383903503418,4.461445331573486,-1.527640461921692
1770950130633214700,4.056214599609375,8.568384170532227,4.488768100738525,-1.6137354373931885
1770950130652184300,4.075184326171875,8.528254508972168,4.528990268707275,-1.710999608039856
1770950130671154000,4.09415380859375,8.48193073272705,4.579667568206787,-1.8038537502288818
1770950130690123300,4.113123291015625,8.437943458557129,4.627833843231201,-1.8853780031204224
1770950130709092900,4.1320927734375,8.404674530029297,4.659388542175293,-1.9549771547317505
1770950130728062500,4.1510625,8.380433082580566,4.677350997924805,-2.0152194499969482
1770950130747031800,4.17003173828125,8.368757247924805,4.681639194488525,-2.053424119949341
1770950130766001400,4.18900146484375,8.370593070983887,4.673424243927002,-2.064619541168213
1770950130784970800,4.207970703125,8.389097213745117,4.653281211853027,-2.0348012447357178
1770950130803940400,4.2269404296875,8.414324760437012,4.628864765167236,-1.985730528831482
1770950130822910000,4.245909912109375,8.437278747558594,4.609095096588135,-1.9336388111114502
1770950130841879600,4.264879638671875,8.434109687805176,4.628608226776123,-1.9005699157714844
1770950130860849000,4.283848876953125,8.390593528747559,4.711361408233643,-1.8898168802261353
1770950130879818500,4.302818603515625,8.344609260559082,4.811194896697998,-1.8412762880325317
1770950130898787800,4.321787841796875,8.340519905090332,4.85914421081543,-1.7305541038513184
1770950130917757400,4.34075732421875,8.383232116699219,4.827579975128174,-1.608189344406128
1770950130936727000,4.35972705078125,8.438161849975586,4.752206802368164,-1.5441378355026245
1770950130955696400,4.3786962890625,8.472356796264648,4.686192035675049,-1.5585752725601196
1770950130974666000,4.397666015625,8.480571746826172,4.652834415435791,-1.6128895282745361
1770950130993635600,4.416635498046875,8.476845741271973,4.641551494598389,-1.6641751527786255
1770950131012605000,4.43560498046875,8.47640609741211,4.631147384643555,-1.695107102394104
1770950131031574500,4.454574462890625,8.486413955688477,4.6095685958862305,-1.7038265466690063
1770950131050544000,4.473544189453125,8.505061149597168,4.580183506011963,-1.6900403499603271
1770950131069513500,4.492513427734375,8.530118942260742,4.5515570640563965,-1.640360951423645
1770950131088483000,4.511483154296875,8.553352355957031,4.535112380981445,-1.563107967376709
1770950131107452700,4.53045263671875,8.564879417419434,4.541150093078613,-1.4802665710449219
1770950131126422000,4.549422119140625,8.564607620239258,4.563471794128418,-1.4116003513336182
1770950131145391600,4.5683916015625,8.5626220703125,4.582744598388672,-1.3602696657180786
1770950131164361000,4.58736083984375,8.565052032470703,4.587872505187988,-1.3272885084152222
1770950131183330600,4.60633056640625,8.566065788269043,4.587149143218994,-1.3232405185699463
1770950131202300200,4.625300048828125,8.562003135681152,4.589208602905273,-1.3422547578811646
1770950131221269500,4.64426953125,8.556962966918945,4.592978477478027,-1.3613688945770264
1770950131240239000,4.663239013671875,8.558691024780273,4.58705472946167,-1.3704420328140259
1770950131259208400,4.68220849609375,8.56710147857666,4.565699577331543,-1.3890814781188965
1770950131278178000,4.701177978515625,8.583534240722656,4.523587226867676,-1.4249564409255981
1770950131297147400,4.7201474609375,8.604392051696777,4.471088409423828,-1.4643081426620483
1770950131316117000,4.739116943359375,8.618660926818848,4.434868812561035,-1.490308165550232
1770950131335086300,4.75808642578125,8.61827564239502,4.429494857788086,-1.5084072351455688
1770950131354056000,4.777055908203125,8.612292289733887,4.434381484985352,-1.5280964374542236
1770950131373025300,4.796025390625,8.614047050476074,4.420701503753662,-1.557557225227356
1770950131391995000,4.814994873046875,8.617993354797363,4.397917747497559,-1.5996596813201904
1770950131410964200,4.833964111328125,8.615432739257812,4.393670558929443,-1.624922513961792
1770950131429933800,4.852933837890625,8.611997604370117,4.407900810241699,-1.6044609546661377
1770950131448903200,4.871903076171875,8.630706787109375,4.397115230560303,-1.5318840742111206
1770950131467872800,4.890872802734375,8.68327808380127,4.3206634521484375,-1.4501495361328125
1770950131486842000,4.909842041015625,8.753955841064453,4.185805320739746,-1.4204407930374146
1770950131505811700,4.928811767578125,8.817816734313965,4.035865306854248,-1.4588607549667358
1770950131524781300,4.94778125,8.859959602355957,3.9151084423065186,-1.5308259725570679
1770950131543750700,4.966750732421875,8.878594398498535,3.849963903427124,-1.5870451927185059
1770950131562720300,4.98572021484375,8.877402305603027,3.8452224731445312,-1.6051130294799805
1770950131581689600,5.004689697265625,8.862099647521973,3.885742425918579,-1.5920387506484985
1770950131600659000,5.023658935546875,8.840996742248535,3.9423110485076904,-1.570139765739441
1770950131619628500,5.042628662109375,8.820451736450195,3.9934725761413574,-1.5563393831253052
1770950131638598000,5.061597900390625,8.8028564453125,4.032719135284424,-1.5547618865966797
1770950131657567500,5.0805673828125,8.786564826965332,4.062188625335693,-1.5701240301132202
1770950131676536800,5.099536865234375,8.767533302307129,4.090792655944824,-1.6019282341003418
1770950131695506200,5.118506103515625,8.741992950439453,4.128261089324951,-1.6448097229003906
1770950131714475800,5.137475830078125,8.708581924438477,4.17471981048584,-1.7037335634231567
1770950131733445400,5.1564453125,8.674406051635742,4.2188544273376465,-1.7681386470794678
1770950131752414700,5.175414794921875,8.653594970703125,4.240867614746094,-1.8167903423309326
1770950131771384000,5.194384033203125,8.653244972229004,4.230446815490723,-1.8425606489181519
1770950131790353700,5.213353759765625,8.664409637451172,4.198004245758057,-1.8641765117645264
1770950131809323000,5.232322998046875,8.659014701843262,4.181991100311279,-1.924268364906311
1770950131828292600,5.251292724609375,8.62999439239502,4.191493988037109,-2.0309998989105225
1770950131847262000,5.270261962890625,8.614472389221191,4.177304744720459,-2.12399959564209
1770950131866231300,5.289231201171875,8.645196914672852,4.093115329742432,-2.1627187728881836
1770950131885201000,5.308200927734375,8.693033218383789,3.9821560382843018,-2.1780712604522705
1770950131904170200,5.327170166015625,8.707262992858887,3.9434053897857666,-2.191690444946289
1770950131923139800,5.346139892578125,8.676111221313477,4.018981456756592,-2.177907943725586
1770950131942109200,5.365109130859375,8.645306587219238,4.132690906524658,-2.085643768310547
1770950131961078500,5.38407861328125,8.642914772033691,4.194124698638916,-1.9696993827819824
1770950131980048000,5.4030478515625,8.659250259399414,4.183318614959717,-1.920316457748413
1770950131999017500,5.422017578125,8.679973602294922,4.121792316436768,-1.9594074487686157
1770950132017986800,5.44098681640625,8.70174503326416,4.033201694488525,-2.0453150272369385
1770950132036956200,5.4599560546875,8.718847274780273,3.9463694095611572,-2.1396872997283936
1770950132055925800,5.47892578125,8.728591918945312,3.880739450454712,-2.2185442447662354
1770950132074895000,5.49789501953125,8.7293119430542,3.8530831336975098,-2.2634589672088623
1770950132093864700,5.51686474609375,8.725049018859863,3.8587305545806885,-2.2702689170837402
1770950132112834000,5.535833984375,8.727190017700195,3.8741652965545654,-2.2354838848114014
1770950132131803400,5.554803466796875,8.741188049316406,3.884673833847046,-2.1613237857818604
1770950132150772700,5.573772705078125,8.764034271240234,3.8912227153778076,-2.054377794265747
1770950132169742300,5.592742431640625,8.78752613067627,3.8996193408966064,-1.9346178770065308
1770950132188711700,5.611711669921875,8.800969123840332,3.916611433029175,-1.8367034196853638
1770950132207681300,5.630681396484375,8.791535377502441,3.9626832008361816,-1.7822555303573608
1770950132226650600,5.649650634765625,8.759562492370605,4.035611152648926,-1.7760367393493652
1770950132245620000,5.668619873046875,8.725775718688965,4.103825092315674,-1.7860184907913208
1770950132264589300,5.68758935546875,8.709555625915527,4.13919734954834,-1.783559799194336
1770950132283559000,5.706558837890625,8.714664459228516,4.138058662414551,-1.7611029148101807
1770950132302528300,5.7255283203125,8.733831405639648,4.106494903564453,-1.7399040460586548
1770950132321497600,5.74449755859375,8.749550819396973,4.068310737609863,-1.7505989074707031
1770950132340467000,5.763467041015625,8.754127502441406,4.047762870788574,-1.7751777172088623
1770950132359436300,5.782436279296875,8.744979858398438,4.056748390197754,-1.7995859384536743
1770950132378406000,5.801406005859375,8.725973129272461,4.083432197570801,-1.831222414970398
1770950132397375200,5.820375244140625,8.716270446777344,4.089757442474365,-1.8630410432815552
1770950132416344600,5.839344482421875,8.724809646606445,4.0665974617004395,-1.8737369775772095
1770950132435314000,5.85831396484375,8.741996765136719,4.045163631439209,-1.8397109508514404
1770950132454283300,5.877283203125,8.754499435424805,4.057394981384277,-1.751188039779663
1770950132473252900,5.8962529296875,8.75778579711914,4.100947380065918,-1.6290466785430908
1770950132492222200,5.91522216796875,8.759986877441406,4.145175457000732,-1.5001788139343262
1770950132511191600,5.934191650390625,8.766408920288086,4.1706695556640625,-1.387796401977539
1770950132530161000,5.953160888671875,8.778199195861816,4.1705498695373535,-1.311535358428955
1770950132549130200,5.972130126953125,8.79356861114502,4.1474833488464355,-1.2813780307769775
1770950132568099800,5.991099853515625,8.811635971069336,4.106785297393799,-1.2883275747299194
1770950132587069200,6.010069091796875,8.826484680175781,4.064910888671875,-1.31911039352417
1770950132606038500,6.02903857421875,8.828402519226074,4.050398826599121,-1.3505388498306274
1770950132625007900,6.0480078125,8.8165864944458,4.074156761169434,-1.3562610149383545
1770950132643977200,6.066977294921875,8.798469543457031,4.121778964996338,-1.3297557830810547
1770950132662946800,6.08594677734375,8.77917766571045,4.1752495765686035,-1.2898484468460083
1770950132681916200,6.104916259765625,8.759995460510254,4.224571228027344,-1.259310007095337
1770950132700885500,6.123885498046875,8.737898826599121,4.269401550292969,-1.261637806892395
1770950132719854800,6.142854736328125,8.709985733032227,4.313291549682617,-1.3046306371688843
1770950132738824200,6.16182421875,8.675444602966309,4.358306884765625,-1.38282310962677
1770950132757793500,6.18079345703125,8.637314796447754,4.402646064758301,-1.4777982234954834
1770950132776763000,6.199762939453125,8.600309371948242,4.4438557624816895,-1.5675455331802368
1770950132795732200,6.218732177734375,8.567927360534668,4.479428768157959,-1.6418651342391968
1770950132814701800,6.237701904296875,8.548688888549805,4.496870994567871,-1.6936546564102173
1770950132833671200,6.256671142578125,8.54708480834961,4.489387512207031,-1.7213746309280396
1770950132852640500,6.275640625,8.543135643005371,4.493067264556885,-1.731353521347046
1770950132871609900,6.29460986328125,8.510241508483887,4.556687831878662,-1.7270724773406982
1770950132890579200,6.3135791015625,8.414925575256348,4.7217607498168945,-1.7505372762680054
1770950132909548500,6.332548583984375,8.290730476379395,4.929788589477539,-1.769569993019104
1770950132928518000,6.351517822265625,8.230658531188965,5.050023555755615,-1.709945797920227
1770950132947487200,6.3704873046875,8.257729530334473,5.03619909286499,-1.6177079677581787
1770950132966456600,6.38945654296875,8.321495056152344,4.936675548553467,-1.5976048707962036
1770950132985426000,6.408426025390625,8.37147045135498,4.824756622314453,-1.6764805316925049
1770950133004395300,6.427395263671875,8.415633201599121,4.711015701293945,-1.7759097814559937
1770950133023364600,6.446364501953125,8.471202850341797,4.580746173858643,-1.850907802581787
1770950133042334000,6.465333984375,8.519335746765137,4.447844982147217,-1.9514049291610718
1770950133061303300,6.48430322265625,8.5368070602417,4.345062732696533,-2.1008918285369873
1770950133080272600,6.503272705078125,8.522069931030273,4.292385101318359,-2.2627718448638916
1770950133099242000,6.522241943359375,8.495625495910645,4.281857967376709,-2.3791675567626953
1770950133118211300,6.54121142578125,8.472670555114746,4.292943000793457,-2.440260648727417
1770950133137180700,6.5601806640625,8.450188636779785,4.322612285614014,-2.465708017349243
1770950133156150000,6.57914990234375,8.423737525939941,4.377482891082764,-2.459407329559326
1770950133175119400,6.598119384765625,8.399679183959961,4.447118759155273,-2.416386365890503
1770950133194088700,6.617088623046875,8.379146575927734,4.517045974731445,-2.357243061065674
1770950133213058000,6.63605810546875,8.35765552520752,4.582767486572266,-2.3061280250549316
1770950133232027400,6.65502734375,8.329512596130371,4.653327941894531,-2.266305446624756
1770950133250996700,6.673996826171875,8.293028831481934,4.73331880569458,-2.2342212200164795
1770950133269966000,6.692966064453125,8.253988265991211,4.815145969390869,-2.2037301063537598
1770950133288935400,6.711935302734375,8.222244262695312,4.884439945220947,-2.1696386337280273
1770950133307904500,6.730904541015625,8.207725524902344,4.923255920410156,-2.1366286277770996
1770950133326874000,6.7498740234375,8.222452163696289,4.912973880767822,-2.103411912918091
1770950133345843200,6.76884326171875,8.267087936401367,4.850645542144775,-2.0728914737701416
1770950133364812500,6.7878125,8.333361625671387,4.747800350189209,-2.0454506874084473
1770950133383782000,6.806781982421875,8.410581588745117,4.6052165031433105,-2.0553529262542725
1770950133402751200,6.825751220703125,8.496299743652344,4.396407127380371,-2.1575162410736084
1770950133421720600,6.844720458984375,8.579009056091309,4.131746292114258,-2.3451361656188965
1770950133440690000,6.86368994140625,8.64599895477295,3.8831615447998047,-2.5175681114196777
1770950133459659300,6.8826591796875,8.722859382629395,3.681119680404663,-2.555673122406006
1770950133478628600,6.901628662109375,8.817527770996094,3.5005290508270264,-2.4835216999053955
1770950133497598000,6.920597900390625,8.896345138549805,3.34102463722229,-2.421363115310669
1770950133516567000,6.939567138671875,8.934414863586426,3.23030161857605,-2.4314124584198
1770950133535536400,6.958536376953125,8.945019721984863,3.157228469848633,-2.4877543449401855
1770950133554505700,6.977505615234375,8.947224617004395,3.103137969970703,-2.547173500061035
1770950133573475000,6.99647509765625,8.94980525970459,3.0730340480804443,-2.5744588375091553
1770950133592444400,7.0154443359375,8.949555397033691,3.0947318077087402,-2.5492119789123535
1770950133611413800,7.034413818359375,8.938581466674805,3.190502405166626,-2.4683682918548584
1770950133630382800,7.0533828125,8.908997535705566,3.3531601428985596,-2.3572161197662354
1770950133649352200,7.072352294921875,8.860530853271484,3.5520224571228027,-2.246004581451416
1770950133668321500,7.091321533203125,8.797635078430176,3.7600951194763184,-2.152600049972534
1770950133687291000,7.110290771484375,8.731613159179688,3.952882766723633,-2.074618339538574
1770950133706260200,7.12926025390625,8.678296089172363,4.105736255645752,-2.0001258850097656
1770950133725229300,7.148229248046875,8.639361381530762,4.219878196716309,-1.9298827648162842
1770950133744198700,7.16719873046875,8.609627723693848,4.30388069152832,-1.8765138387680054
1770950133763168000,7.18616796875,8.592836380004883,4.343233108520508,-1.8627623319625854
1770950133782137300,7.205137451171875,8.58777904510498,4.327736854553223,-1.921230673789978
1770950133801106400,7.2241064453125,8.59190845489502,4.264626979827881,-2.040208339691162
1770950133820075800,7.24307568359375,8.60680866241455,4.162869453430176,-2.182600498199463
1770950133839045000,7.262045166015625,8.630067825317383,4.044467926025391,-2.3096752166748047
1770950133858014500,7.281014404296875,8.64520263671875,3.9598641395568848,-2.397987127304077
1770950133876983800,7.29998388671875,8.650269508361816,3.9278674125671387,-2.4320919513702393
1770950133895953000,7.318952880859375,8.669045448303223,3.901554822921753,-2.407468795776367
1770950133914922200,7.337922119140625,8.680298805236816,3.888481616973877,-2.3879952430725098
1770950133933891600,7.3568916015625,8.650091171264648,3.9532277584075928,-2.3912971019744873
1770950133952860700,7.375860595703125,8.597436904907227,4.097945213317871,-2.336941957473755
1770950133971830000,7.394830078125,8.561662673950195,4.263400554656982,-2.166041612625122
1770950133990799400,7.41379931640625,8.557672500610352,4.384332656860352,-1.927240252494812
1770950134009768700,7.432768798828125,8.572232246398926,4.439931392669678,-1.7246021032333374
1770950134028737800,7.45173779296875,8.588247299194336,4.445997714996338,-1.6265052556991577
1770950134047707100,7.47070703125,8.598219871520996,4.423354625701904,-1.6355204582214355
1770950134066676500,7.489676513671875,8.60127067565918,4.391256809234619,-1.70451819896698
1770950134085645600,7.5086455078125,8.60080623626709,4.361976146697998,-1.780364990234375
1770950134104615000,7.527614990234375,8.601489067077637,4.339479446411133,-1.8313058614730835
1770950134123584300,7.546584228515625,8.605917930603027,4.323784351348877,-1.8475548028945923
1770950134142553300,7.56555322265625,8.621495246887207,4.3035993576049805,-1.8218801021575928
1770950134161522700,7.584522705078125,8.652685165405273,4.26881217956543,-1.7546149492263794
1770950134180492000,7.603491943359375,8.702203750610352,4.211564064025879,-1.6446188688278198
1770950134199461000,7.622461181640625,8.768394470214844,4.126028537750244,-1.503840446472168
1770950134218430500,7.641430419921875,8.839917182922363,4.021145820617676,-1.3625842332839966
1770950134237399600,7.660399658203125,8.897549629211426,3.913381338119507,-1.2997899055480957
1770950134256369000,7.679368896484375,8.929573059082031,3.8165788650512695,-1.3663166761398315
1770950134275338200,7.698338134765625,8.946206092834473,3.720513105392456,-1.5144579410552979
1770950134294307300,7.717307373046875,8.97195053100586,3.5919902324676514,-1.6649574041366577
1770950134313276700,7.736276611328125,9.017814636230469,3.413905620574951,-1.7873592376708984
1770950134332245800,7.755245849609375,9.073185920715332,3.208249568939209,-1.8854272365570068
1770950134351215000,7.774215087890625,9.120594024658203,3.004333019256592,-1.9897555112838745
1770950134370184200,7.79318408203125,9.154167175292969,2.8038244247436523,-2.1237168312072754
1770950134389153500,7.812153564453125,9.178275108337402,2.5988807678222656,-2.2749671936035156
1770950134408123000,7.831122802734375,9.196157455444336,2.401961326599121,-2.414881706237793
1770950134427092000,7.850092041015625,9.217009544372559,2.2223145961761475,-2.5056843757629395
1770950134446061300,7.869061279296875,9.239526748657227,2.100191354751587,-2.527987480163574
1770950134465030400,7.888030517578125,9.26103687286377,2.0653188228607178,-2.477505922317505
1770950134483999700,7.906999755859375,9.275074005126953,2.104130268096924,-2.3908214569091797
1770950134502968800,7.92596875,9.2748384475708,2.1740329265594482,-2.328381061553955
1770950134521938200,7.944938232421875,9.260293960571289,2.2427544593811035,-2.3210771083831787
1770950134540907300,7.9639072265625,9.234451293945312,2.300199270248413,-2.3673548698425293
1770950134559876600,7.982876708984375,9.204937934875488,2.3387320041656494,-2.443326950073242
1770950134578845700,8.001845703125,9.17783260345459,2.361640691757202,-2.5219874382019043
1770950134597815000,8.02081494140625,9.159892082214355,2.379168748855591,-2.570277452468872
1770950134616784100,8.0397841796875,9.149062156677246,2.4096696376800537,-2.5804107189178467
1770950134635753500,8.05875341796875,9.137916564941406,2.467778205871582,-2.564943790435791
1770950134654722600,8.07772265625,9.120667457580566,2.561028480529785,-2.5347490310668945
1770950134673692000,8.09669189453125,9.097981452941895,2.681065559387207,-2.4917867183685303
1770950134692661000,8.115660888671876,9.072991371154785,2.8087220191955566,-2.4417800903320312
1770950134711630300,8.13463037109375,9.050650596618652,2.9282727241516113,-2.383556604385376
1770950134730599400,8.153599365234374,9.034165382385254,3.0215506553649902,-2.3290514945983887
1770950134749568500,8.172568603515625,9.02840518951416,3.066969871520996,-2.2917234897613525
1770950134768537900,8.191537841796874,9.035426139831543,3.051051616668701,-2.285287380218506
1770950134787507000,8.2105068359375,9.047128677368164,2.9851138591766357,-2.325712203979492
1770950134806476300,8.229476318359374,9.05505657196045,2.893404722213745,-2.4092626571655273
1770950134825445400,8.2484453125,9.054516792297363,2.7998547554016113,-2.5193114280700684
1770950134844414700,8.267414794921875,9.038156509399414,2.732433795928955,-2.648756980895996
1770950134863383800,8.2863837890625,9.004233360290527,2.7112178802490234,-2.782709836959839
1770950134882353000,8.305352783203125,8.968741416931152,2.730260133743286,-2.8771073818206787
1770950134901322200,8.324322265625,8.953548431396484,2.7580888271331787,-2.8978095054626465
1770950134920291300,8.343291259765625,8.952909469604492,2.7809231281280518,-2.877892255783081
1770950134939260700,8.3622607421875,8.933999061584473,2.8334779739379883,-2.8853859901428223
1770950134958229800,8.381229736328125,8.883563041687012,2.95888352394104,-2.9150846004486084
1770950134977198800,8.40019873046875,8.825976371765137,3.144726037979126,-2.8953824043273926
1770950134996168200,8.419168212890625,8.79511833190918,3.3446247577667236,-2.7622058391571045
1770950135015137300,8.43813720703125,8.789886474609375,3.5231590270996094,-2.5486536026000977
1770950135034106400,8.4571064453125,8.791264533996582,3.657705783843994,-2.346323251724243
1770950135053075500,8.476075439453124,8.79486083984375,3.7239787578582764,-2.225485324859619
1770950135072044800,8.495044921875,8.804916381835938,3.7109897136688232,-2.207350730895996
1770950135091014000,8.514013916015625,8.823741912841797,3.634286880493164,-2.259182929992676
1770950135109983000,8.53298291015625,8.84436321258545,3.5304272174835205,-2.341733932495117
1770950135128952300,8.551952392578125,8.858721733093262,3.4361507892608643,-2.426171064376831
1770950135147921400,8.57092138671875,8.860050201416016,3.3819451332092285,-2.4964675903320312
1770950135166890500,8.589890380859375,8.851202011108398,3.3816075325012207,-2.528108835220337
1770950135185859800,8.60885986328125,8.84764289855957,3.414525032043457,-2.4961183071136475
1770950135204828700,8.62782861328125,8.851580619812012,3.4630682468414307,-2.413928270339966
1770950135223798000,8.646798095703126,8.859654426574707,3.5168745517730713,-2.304022789001465
1770950135242767000,8.66576708984375,8.867840766906738,3.569157838821411,-2.189267158508301
1770950135261736200,8.684736083984374,8.872754096984863,3.6156811714172363,-2.0908069610595703
1770950135280705500,8.70370556640625,8.8660306930542,3.6656594276428223,-2.0314548015594482
1770950135299674600,8.722674560546874,8.845593452453613,3.7259774208068848,-2.010711193084717
1770950135318643700,8.741643798828125,8.81967830657959,3.787400960922241,-2.009788990020752
1770950135337612800,8.76061279296875,8.799284934997559,3.8276238441467285,-2.0229363441467285
1770950135356582100,8.77958203125,8.794097900390625,3.8279833793640137,-2.0446958541870117
1770950135375551200,8.79855126953125,8.80107593536377,3.8003106117248535,-2.0661795139312744
1770950135394520300,8.817520263671875,8.814023971557617,3.7687456607818604,-2.0687997341156006
1770950135413489400,8.836489501953125,8.832770347595215,3.7288684844970703,-2.061093807220459
1770950135432458500,8.85545849609375,8.861725807189941,3.656277656555176,-2.0668442249298096
1770950135451427600,8.874427490234375,8.898871421813965,3.545142889022827,-2.100578784942627
1770950135470397000,8.89339697265625,8.93146800994873,3.4301764965057373,-2.1524763107299805
1770950135489365800,8.91236572265625,8.95179271697998,3.3578689098358154,-2.1818599700927734
1770950135508335000,8.931335205078126,8.968338966369629,3.3359174728393555,-2.147306203842163
1770950135527304200,8.95030419921875,8.977436065673828,3.352614641189575,-2.0823118686676025
1770950135546273300,8.969273193359374,8.977054595947266,3.3845951557159424,-2.031599760055542
1770950135565242400,8.988242431640625,8.967048645019531,3.4153900146484375,-2.024235963821411
1770950135584211500,9.00721142578125,8.951852798461914,3.4327354431152344,-2.0618088245391846
1770950135603180500,9.0261806640625,8.940052032470703,3.429840326309204,-2.117084264755249
1770950135622149600,9.045149658203124,8.93751335144043,3.414013624191284,-2.1530802249908447
1770950135641119000,9.064118896484375,8.943028450012207,3.4030938148498535,-2.147459030151367
1770950135660088000,9.083088134765624,8.946998596191406,3.4160983562469482,-2.109945774078369
1770950135679057200,9.10205712890625,8.940539360046387,3.4613091945648193,-2.0631229877471924
1770950135698026200,9.121026123046875,8.919612884521484,3.536342144012451,-2.0261282920837402
1770950135716995300,9.139995361328126,8.892976760864258,3.619563341140747,-1.9960232973098755
1770950135735964400,9.15896435546875,8.869864463806152,3.687032699584961,-1.9752658605575562
1770950135754933500,9.17793359375,8.85350513458252,3.733161211013794,-1.9619718790054321
1770950135773902600,9.196902587890625,8.842299461364746,3.7599434852600098,-1.9613662958145142
1770950135792871700,9.21587158203125,8.830470085144043,3.770327091217041,-1.9944485425949097
1770950135811840800,9.2348408203125,8.810653686523438,3.778008222579956,-2.066254138946533
1770950135830809900,9.253809814453126,8.778849601745605,3.798154354095459,-2.162457227706909
1770950135849779000,9.272779052734375,8.741260528564453,3.8307290077209473,-2.2552740573883057
1770950135868748000,9.291748046875,8.707685470581055,3.868391990661621,-2.31994366645813
1770950135887717000,9.310717041015625,8.687376976013184,3.8951072692871094,-2.3511719703674316
1770950135906686200,9.329686279296874,8.690890312194824,3.883124351501465,-2.357999801635742
1770950135925655300,9.3486552734375,8.724167823791504,3.8105313777923584,-2.3535361289978027
1770950135944624400,9.367624267578124,8.764758110046387,3.705434560775757,-2.3704769611358643
1770950135963593500,9.386593505859375,8.772082328796387,3.649132013320923,-2.429978847503662
1770950135982562600,9.4055625,8.722780227661133,3.715916872024536,-2.505084276199341
1770950136001531600,9.42453173828125,8.648798942565918,3.8816044330596924,-2.5103394985198975
1770950136020500700,9.443500732421874,8.59609317779541,4.071869850158691,-2.3869309425354004
1770950136039469800,9.4624697265625,8.581623077392578,4.22763729095459,-2.157132387161255
1770950136058439000,9.48143896484375,8.596107482910156,4.3130035400390625,-1.9171123504638672
1770950136077408000,9.500407958984376,8.628290176391602,4.31787109375,-1.7547004222869873
1770950136096377000,9.519377197265625,8.665889739990234,4.257318019866943,-1.7169718742370605
1770950136115346200,9.53834619140625,8.709331512451172,4.146778106689453,-1.7669671773910522
1770950136134315300,9.557315185546875,8.757015228271484,4.009059906005859,-1.84730064868927
1770950136153284000,9.5762841796875,8.797207832336426,3.8833954334259033,-1.9232181310653687
1770950136172253200,9.595253173828125,8.818538665771484,3.807701826095581,-1.9761474132537842
1770950136191222300,9.61422216796875,8.825139999389648,3.7796359062194824,-2.000410556793213
1770950136210191400,9.63319140625,8.831608772277832,3.7721943855285645,-1.9858570098876953
1770950136229160400,9.652160400390626,8.847768783569336,3.762985944747925,-1.9306284189224243
1770950136248129500,9.671129638671875,8.8731107711792,3.745864152908325,-1.8457509279251099
1770950136267098600,9.6900986328125,8.900655746459961,3.7286040782928467,-1.7453490495681763
1770950136286067700,9.709067626953125,8.925957679748535,3.718708038330078,-1.633670687675476
1770950136305036800,9.728036865234374,8.93643569946289,3.738149404525757,-1.5286461114883423
1770950136324006000,9.747005859375,8.921908378601074,3.803421974182129,-1.4504908323287964
1770950136342974700,9.765974609375,8.898685455322266,3.881477117538452,-1.3848860263824463
1770950136361943800,9.78494384765625,8.888532638549805,3.931358575820923,-1.307206153869629
1770950136380913000,9.803912841796874,8.88874340057373,3.956613302230835,-1.227124810218811
1770950136399882000,9.822882080078125,8.886650085449219,3.980046272277832,-1.1649317741394043
1770950136418851000,9.84185107421875,8.870988845825195,4.0279717445373535,-1.1186585426330566
1770950136437820200,9.860820068359375,8.821515083312988,4.144376277923584,-1.084159016609192
1770950136456789000,9.8797890625,8.75301742553711,4.290364742279053,-1.0713701248168945
1770950136475758000,9.898758056640625,8.715636253356934,4.353717803955078,-1.1194674968719482
1770950136494727200,9.91772705078125,8.748640060424805,4.27626895904541,-1.1598292589187622
1770950136513696300,9.9366962890625,8.834454536437988,4.0996599197387695,-1.1469963788986206
1770950136532665300,9.955665283203125,8.910134315490723,3.926792860031128,-1.1662696599960327
1770950136551634200,9.97463427734375,8.943241119384766,3.827897310256958,-1.239372730255127
1770950136570603300,9.993603271484375,8.914295196533203,3.852055072784424,-1.3665215969085693
1770950136589572400,10.012572265625,8.84091854095459,3.961841583251953,-1.5206435918807983
1770950136608541200,10.031541259765625,8.798188209533691,4.032171726226807,-1.5823603868484497
1770950136627510300,10.05051025390625,8.78834342956543,4.042458534240723,-1.6105705499649048
1770950136646479400,10.069479248046875,8.806791305541992,3.9965994358062744,-1.624192237854004
1770950136665448400,10.088448486328126,8.830492973327637,3.9255809783935547,-1.6681100130081177
1770950136684417500,10.10741748046875,8.84296989440918,3.8648083209991455,-1.7422796487808228
1770950136703386400,10.126386474609374,8.840439796447754,3.8289222717285156,-1.8320387601852417
1770950136722355500,10.14535546875,8.832600593566895,3.8046183586120605,-1.9184494018554688
1770950136741324500,10.164324462890624,8.827584266662598,3.7768890857696533,-1.9948036670684814
1770950136760293400,10.18329345703125,8.822166442871094,3.754063129425049,-2.0607709884643555
1770950136779262500,10.202262451171874,8.809516906738281,3.7632946968078613,-2.0977165699005127
1770950136798231600,10.2212314453125,8.781557083129883,3.833977699279785,-2.0869264602661133
1770950136817200600,10.24020068359375,8.742935180664062,3.954406976699829,-2.0234017372131348
1770950136836169500,10.25916943359375,8.705517768859863,4.082068920135498,-1.9290035963058472
1770950136855138600,10.278138671875,8.677882194519043,4.186275959014893,-1.8275202512741089
1770950136874107600,10.297107666015625,8.652636528015137,4.268880367279053,-1.754688024520874
1770950136893076500,10.316076416015624,8.628984451293945,4.33453893661499,-1.7096197605133057
1770950136912045600,10.335045654296875,8.60113525390625,4.398192882537842,-1.6872376203536987
1770950136931014400,10.354014404296874,8.562355995178223,4.476024150848389,-1.679777979850769
1770950136949983500,10.3729833984375,8.506404876708984,4.581132411956787,-1.6806813478469849
1770950136968952600,10.39195263671875,8.44052505493164,4.702505111694336,-1.677604079246521
1770950136987921400,10.41092138671875,8.378852844238281,4.816514492034912,-1.6632484197616577
1770950137006890500,10.429890380859375,8.327505111694336,4.912074089050293,-1.6415197849273682
1770950137025859600,10.448859619140626,8.285447120666504,4.991258144378662,-1.6152676343917847
1770950137044828400,10.467828369140625,8.24275016784668,5.064732074737549,-1.6049810647964478
1770950137063797500,10.486797607421876,8.1859712600708,5.14771842956543,-1.6313343048095703
1770950137082766600,10.5057666015625,8.137433052062988,5.211129188537598,-1.672333002090454
1770950137101735400,10.5247353515625,8.151640892028809,5.1921892166137695,-1.662021279335022
1770950137120704500,10.54370458984375,8.217321395874023,5.092624187469482,-1.6465725898742676
1770950137139673300,10.56267333984375,8.256547927856445,5.00658655166626,-1.7128618955612183
1770950137158642400,10.581642333984375,8.237310409545898,4.998667240142822,-1.8249478340148926
1770950137177611500,10.600611572265626,8.171143531799316,5.080118179321289,-1.8960992097854614
1770950137196580400,10.619580322265625,8.114300727844238,5.195714473724365,-1.8256663084030151
1770950137215549400,10.638549560546876,8.099746704101562,5.273316383361816,-1.660306692123413
1770950137234518300,10.657518310546875,8.130648612976074,5.280822277069092,-1.4750784635543823
1770950137253487000,10.676487060546876,8.204048156738281,5.207983016967773,-1.3194286823272705
1770950137272456200,10.695456298828125,8.28282356262207,5.0953521728515625,-1.2659422159194946
1770950137291425000,10.714425048828126,8.333796501159668,4.996618747711182,-1.323638916015625
1770950137310394000,10.73339404296875,8.344194412231445,4.947153568267822,-1.4389164447784424
1770950137329363200,10.75236328125,8.323135375976562,4.944715976715088,-1.5638424158096313
1770950137348332000,10.77133203125,8.300284385681152,4.955352783203125,-1.6492841243743896
1770950137367301000,10.790301025390624,8.292476654052734,4.952437400817871,-1.696639060974121
1770950137386270000,10.80927001953125,8.31287670135498,4.911566257476807,-1.7155096530914307
1770950137405239000,10.828239013671874,8.358977317810059,4.830922603607178,-1.7204883098602295
1770950137424208000,10.847207763671875,8.413469314575195,4.732777118682861,-1.7276451587677002
1770950137443177000,10.866177001953124,8.457476615905762,4.646337509155273,-1.7472894191741943
1770950137462145800,10.885145751953125,8.481246948242188,4.587867259979248,-1.7861390113830566
1770950137481115000,10.904114990234374,8.497064590454102,4.540286540985107,-1.831957459449768
1770950137500083700,10.923083740234375,8.515365600585938,4.490813732147217,-1.8685625791549683
1770950137519052500,10.942052490234374,8.535919189453125,4.443573951721191,-1.8876252174377441
1770950137538021600,10.961021728515625,8.55510139465332,4.410891056060791,-1.8774092197418213
1770950137556990500,10.979990478515624,8.568385124206543,4.40797758102417,-1.8228819370269775
1770950137575959600,10.99895947265625,8.56773567199707,4.446326732635498,-1.730448842048645
1770950137594928400,11.017928466796874,8.546415328979492,4.523298740386963,-1.6336911916732788
1770950137613897500,11.0368974609375,8.504683494567871,4.6190385818481445,-1.5827908515930176
1770950137632866300,11.0558662109375,8.454723358154297,4.711757659912109,-1.5771390199661255
1770950137651835400,11.07483544921875,8.405542373657227,4.803126335144043,-1.5643583536148071
1770950137670804200,11.09380419921875,8.362807273864746,4.906264305114746,-1.4705164432525635
1770950137689773000,11.11277294921875,8.334571838378906,5.012585163116455,-1.2566994428634644
1770950137708742100,11.1317421875,8.300621032714844,5.1168694496154785,-1.0429412126541138
1770950137727711000,11.1507109375,8.269423484802246,5.186152935028076,-0.9438366293907166
1770950137746680000,11.16968017578125,8.263818740844727,5.182867050170898,-1.0087528228759766
1770950137765649000,11.18864892578125,8.284562110900879,5.106759071350098,-1.2072392702102661
1770950137784618000,11.207617919921875,8.325901985168457,4.988011837005615,-1.4033782482147217
1770950137803586800,11.2265869140625,8.401437759399414,4.834728717803955,-1.487154483795166
1770950137822555600,11.2455556640625,8.537571907043457,4.613278388977051,-1.4134773015975952
1770950137841524700,11.264524658203126,8.708903312683105,4.324278354644775,-1.2751539945602417
1770950137860493600,11.28349365234375,8.854217529296875,4.043663024902344,-1.192481517791748
1770950137879462400,11.30246240234375,8.940549850463867,3.845207452774048,-1.204712986946106
1770950137898431500,11.321431396484375,8.963706970214844,3.7691893577575684,-1.271039366722107
1770950137917400300,11.340400390625,8.938490867614746,3.8111155033111572,-1.3225542306900024
1770950137936369200,11.359369140625,8.900484085083008,3.901181697845459,-1.316264271736145
1770950137955338200,11.378338134765626,8.868454933166504,3.9871528148651123,-1.2741708755493164
1770950137974307000,11.39730712890625,8.84121036529541,4.061654090881348,-1.227332592010498
1770950137993276000,11.41627587890625,8.815954208374023,4.127960681915283,-1.1871238946914673
1770950138021729500,11.4447294921875,8.784772872924805,4.199127197265625,-1.1685372591018677
1770950138040698400,11.463698486328125,8.755513191223145,4.253811359405518,-1.1901556253433228
1770950138059667200,11.482667236328124,8.72387409210205,4.311227798461914,-1.215612769126892
1770950138078636000,11.501635986328125,8.708634376525879,4.343605041503906,-1.2096110582351685
1770950138097605000,11.520605224609374,8.708721160888672,4.349433898925781,-1.1878571510314941
1770950138116574000,11.539573974609375,8.69996452331543,4.363198280334473,-1.2014563083648682
1770950138135542800,11.558542724609374,8.67187213897705,4.407654762268066,-1.241610050201416
1770950138154512000,11.577511962890625,8.65311050415039,4.443620204925537,-1.244307041168213
1770950138173480700,11.596480712890624,8.672067642211914,4.420649528503418,-1.1930984258651733
1770950138192449500,11.615449462890625,8.717599868774414,4.3422932624816895,-1.1481859683990479
1770950138211418400,11.63441845703125,8.755149841308594,4.26458740234375,-1.1537114381790161
1770950138230387500,11.653387451171875,8.77204704284668,4.2228875160217285,-1.1784740686416626
1770950138249356300,11.672356201171874,8.778419494628906,4.208181858062744,-1.1836211681365967
1770950138268325000,11.6913251953125,8.78484058380127,4.19830846786499,-1.170964241027832
1770950138287294200,11.710294189453125,8.800947189331055,4.172790050506592,-1.1408461332321167
1770950138306263000,11.729262939453125,8.829605102539062,4.124807357788086,-1.0929005146026611
1770950138325231900,11.74823193359375,8.8673734664917,4.058795928955078,-1.0325961112976074
1770950138344200700,11.76720068359375,8.907903671264648,3.9836766719818115,-0.974658727645874
1770950138363169500,11.78616943359375,8.949413299560547,3.90086030960083,-0.9282711744308472
1770950138382138600,11.805138671875,8.992470741271973,3.8057632446289062,-0.9066461324691772
1770950138401107500,11.824107421875,9.040956497192383,3.693877935409546,-0.8869965076446533
1770950138420076300,11.843076171875,9.100420951843262,3.5609586238861084,-0.8199347257614136
1770950138439045000,11.862045166015625,9.162497520446777,3.4226267337799072,-0.7103990912437439
1770950138458014200,11.88101416015625,9.212516784667969,3.311511278152466,-0.5777641534805298
1770950138476983000,11.899983154296875,9.232170104980469,3.271568775177002,-0.48399877548217773
1770950138495952000,11.918951904296875,9.217766761779785,3.3171401023864746,-0.4469229280948639
1770950138514920700,11.937920654296875,9.177019119262695,3.433783531188965,-0.4023052752017975
1770950138533889500,11.9568896484375,9.119782447814941,3.590737819671631,-0.3264518082141876
1770950138552858400,11.9758583984375,9.06340503692627,3.739060401916504,-0.21092139184474945
1770950138571827500,11.994827392578125,9.024497985839844,3.8369078636169434,-0.08342581987380981
1770950138590796300,12.01379638671875,9.01788330078125,3.8533008098602295,0.015833470970392227
1770950138609765400,12.032765380859376,9.0438871383667,3.7915258407592773,0.05320052057504654
1770950138628734200,12.051734130859375,9.088911056518555,3.682474136352539,0.0384008027613163
1770950138647703000,12.070703125,9.136825561523438,3.5620596408843994,0.023197073489427567
1770950138666671900,12.089671875,9.181400299072266,3.445472002029419,0.03168958052992821
1770950138685640700,12.108640625,9.22507381439209,3.326866626739502,0.018513383343815804
1770950138704609500,12.127609619140625,9.274799346923828,3.185051441192627,-0.06266894936561584
1770950138723578400,12.146578369140625,9.32829761505127,3.01959490776062,-0.1878577619791031
1770950138742547500,12.16554736328125,9.379538536071777,2.8474957942962646,-0.29394665360450745
1770950138761516300,12.184516357421876,9.428762435913086,2.6709210872650146,-0.36742812395095825
1770950138780485000,12.203485107421875,9.472442626953125,2.50197172164917,-0.42818328738212585
1770950138799454000,12.222453857421876,9.504953384399414,2.3657751083374023,-0.47891974449157715
1770950138818422800,12.2414228515625,9.5216064453125,2.2844350337982178,-0.5392277240753174
1770950138837391600,12.2603916015625,9.524102210998535,2.2564163208007812,-0.6086440086364746
1770950138856360400,12.2793603515625,9.519218444824219,2.25901460647583,-0.6721006035804749
1770950138875329500,12.29832958984375,9.51301383972168,2.2704720497131348,-0.7196638584136963
1770950138894298400,12.31729833984375,9.507430076599121,2.2893621921539307,-0.73348069190979
1770950138913267200,12.33626708984375,9.499147415161133,2.3245227336883545,-0.7301908731460571
1770950138932236000,12.355236083984375,9.482572555541992,2.38455867767334,-0.7517192959785461
1770950138951204900,12.374204833984376,9.456046104431152,2.4722836017608643,-0.8008719086647034
1770950138970173700,12.393173583984375,9.420648574829102,2.588505983352661,-0.8493586778640747
1770950138989142500,12.412142578125,9.38050365447998,2.7216460704803467,-0.8770374655723572
1770950139008111400,12.431111328125,9.338804244995117,2.856705904006958,-0.8923906087875366
1770950139027080200,12.450080078125,9.29777717590332,2.981264591217041,-0.9131262302398682
1770950139046049000,12.469049072265625,9.251919746398926,3.1044156551361084,-0.966937243938446
1770950139074502400,12.49750244140625,9.181097030639648,3.2689671516418457,-1.0916467905044556
1770950139093471200,12.51647119140625,9.144797325134277,3.3427438735961914,-1.170099139213562
1770950139112440000,12.535440185546875,9.117379188537598,3.3858580589294434,-1.2568780183792114
1770950139131409000,12.554408935546874,9.092742919921875,3.4068050384521484,-1.3733478784561157
1770950139150377700,12.573377685546875,9.074257850646973,3.4096457958221436,-1.4841006994247437
1770950139169346600,12.5923466796875,9.054566383361816,3.424381971359253,-1.5680569410324097
1770950139188315400,12.6113154296875,9.02637767791748,3.4771978855133057,-1.6136888265609741
1770950139207284200,12.6302841796875,8.998310089111328,3.551631212234497,-1.6083263158798218
1770950139226253000,12.649253173828125,9.006690979003906,3.5630156993865967,-1.5345438718795776
1770950139245222100,12.66822216796875,9.028644561767578,3.508439064025879,-1.5312774181365967
1770950139264191000,12.68719091796875,9.043087005615234,3.4456210136413574,-1.5876586437225342
1770950139283159800,12.706159912109374,9.047492027282715,3.4280333518981934,-1.6005834341049194
1770950139302128400,12.72512841796875,9.047992706298828,3.469768762588501,-1.50496506690979
1770950139321097200,12.74409716796875,9.034858703613281,3.5600762367248535,-1.3665906190872192
1770950139340066300,12.76306640625,9.017576217651367,3.647986650466919,-1.2433370351791382
1770950139359035100,12.78203515625,9.025723457336426,3.6664023399353027,-1.1243665218353271
1770950139378004000,12.80100390625,9.060582160949707,3.6081197261810303,-1.0284531116485596
1770950139396972800,12.819972900390624,9.114160537719727,3.484485149383545,-0.9802196621894836
1770950139415941400,12.83894140625,9.165111541748047,3.3477630615234375,-0.9816367030143738
1770950139434910500,12.857910400390624,9.186965942382812,3.277622699737549,-1.013520359992981
1770950139463363600,12.886363525390625,9.167739868164062,3.3378305435180664,-0.9908725619316101
1770950139482332400,12.90533251953125,9.142857551574707,3.4348106384277344,-0.8835276365280151
1770950139501301200,12.92430126953125,9.12301254272461,3.519662380218506,-0.7436450123786926
1770950139520270000,12.94327001953125,9.114060401916504,3.5670320987701416,-0.616898238658905
1770950139539239000,12.962239013671875,9.106219291687012,3.6000969409942627,-0.5352202653884888
1770950139558207700,12.981207763671875,9.083066940307617,3.6612436771392822,-0.5133943557739258
1770950139577176600,13.000176513671875,9.042595863342285,3.7588438987731934,-0.5224446058273315
1770950139596145400,13.0191455078125,8.996150970458984,3.8696205615997314,-0.5154616832733154
1770950139615114200,13.0381142578125,8.960821151733398,3.950709581375122,-0.5157086253166199
1770950139634083000,13.0570830078125,8.956316947937012,3.9617807865142822,-0.5089986324310303
1770950139653052000,13.076052001953125,8.978022575378418,3.9099416732788086,-0.5271288752555847
1770950139672020700,13.095020751953125,9.016501426696777,3.8155531883239746,-0.5609471797943115
1770950139690989600,13.113989501953125,9.06123161315918,3.7061760425567627,-0.5733502507209778
1770950139709958400,13.13295849609375,9.09878158569336,3.6169044971466064,-0.5482397079467773
1770950139728927200,13.15192724609375,9.119572639465332,3.571976900100708,-0.49475863575935364
1770950139747896000,13.17089599609375,9.127233505249023,3.560685873031616,-0.43069663643836975
1770950139766865000,13.189864990234375,9.133662223815918,3.5481317043304443,-0.39667877554893494
1770950139785833500,13.20883349609375,9.147808074951172,3.5087485313415527,-0.4203270971775055
1770950139804802600,13.227802490234374,9.165334701538086,3.4525833129882812,-0.496673047542572
1770950139823771400,13.246771484375,9.172295570373535,3.421416759490967,-0.5773075819015503
1770950139842740000,13.265739990234374,9.160478591918945,3.4459023475646973,-0.6178843379020691
1770950139861708800,13.284708740234375,9.142451286315918,3.495145797729492,-0.6082203984260559
1770950139880677600,13.303677734375,9.132214546203613,3.5249929428100586,-0.5894502401351929
1770950139899646500,13.322646484375,9.130414962768555,3.5295519828796387,-0.5900464653968811
1770950139918615300,13.341615234375,9.13174057006836,3.521357297897339,-0.6178560853004456
1770950139937584000,13.360584228515625,9.131762504577637,3.5135722160339355,-0.6603836417198181
1770950139956553000,13.379552978515624,9.124013900756836,3.526519775390625,-0.6974391341209412
1770950139975521800,13.398521728515625,9.106654167175293,3.567713737487793,-0.7145911455154419
1770950139994490600,13.41749072265625,9.083824157714844,3.62679386138916,-0.7077292203903198
1770950140013459200,13.436459228515625,9.06087589263916,3.68619441986084,-0.6948955059051514
1770950140032428300,13.45542822265625,9.039730072021484,3.7366104125976562,-0.7010054588317871
1770950140051396900,13.47439697265625,9.019939422607422,3.7797186374664307,-0.7244323492050171
1770950140070365700,13.49336572265625,8.99954605102539,3.8227427005767822,-0.7517902851104736
1770950140089334500,13.51233447265625,8.973193168640137,3.8798258304595947,-0.7740421891212463
1770950140108303400,13.531303466796874,8.941261291503906,3.9494996070861816,-0.7909988164901733
1770950140127272200,13.550272216796875,8.90855884552002,4.019533157348633,-0.8070487380027771
1770950140146241000,13.569240966796874,8.883245468139648,4.066745758056641,-0.8484825491905212
1770950140165209900,13.5882099609375,8.872747421264648,4.076239585876465,-0.9105048775672913
1770950140184178700,13.6071787109375,8.878076553344727,4.04752254486084,-0.9837243556976318
1770950140203147300,13.626147216796875,8.895750999450684,3.9879140853881836,-1.0642139911651611
1770950140222116000,13.6451162109375,8.917658805847168,3.9163756370544434,-1.1435664892196655
1770950140241085000,13.6640849609375,8.931695938110352,3.8638553619384766,-1.2107046842575073
1770950140260053800,13.6830537109375,8.94273567199707,3.8313939571380615,-1.2321940660476685
1770950140279022300,13.702022216796875,8.965556144714355,3.7853844165802,-1.2083319425582886
1770950140297991200,13.7209912109375,8.993565559387207,3.725705623626709,-1.1854441165924072
1770950140316960300,13.739960205078125,8.99946117401123,3.712336778640747,-1.1826413869857788
1770950140335928800,13.7589287109375,8.971932411193848,3.7883102893829346,-1.1504449844360352
1770950140354897700,13.777897705078125,8.92387580871582,3.9283785820007324,-1.050087809562683
1770950140373866500,13.796866455078124,8.881436347961426,4.06206750869751,-0.8888673782348633
1770950140392835300,13.81583544921875,8.863362312316895,4.132282257080078,-0.73174649477005
1770950140411804200,13.83480419921875,8.874922752380371,4.12381649017334,-0.6326773166656494
1770950140430772700,13.853772705078125,8.907242774963379,4.057858943939209,-0.604316771030426
1770950140449741800,13.872741943359374,8.9415922164917,3.9788002967834473,-0.6224787831306458
1770950140468710400,13.89171044921875,8.961179733276367,3.9281585216522217,-0.6612309813499451
1770950140487679200,13.91067919921875,8.965551376342773,3.9134109020233154,-0.6888377666473389
1770950140506648000,13.92964794921875,8.957589149475098,3.9306962490081787,-0.6939899325370789
1770950140525617000,13.948616943359376,8.941146850585938,3.9719767570495605,-0.6705783009529114
1770950140544585700,13.967585693359375,8.921019554138184,4.024207592010498,-0.6257373690605164
1770950140563554300,13.98655419921875,8.904579162597656,4.068648338317871,-0.5700402855873108
1770950140582523100,14.005523193359375,8.893893241882324,4.099555015563965,-0.5125500559806824
1770950140601492000,14.024491943359376,8.881879806518555,4.1305718421936035,-0.47007983922958374
1770950140620460800,14.043460693359375,8.864255905151367,4.170926570892334,-0.44576510787010193
1770950140639429600,14.0624296875,8.847426414489746,4.207985877990723,-0.4316316246986389
1770950140658398500,14.0813984375,8.840764045715332,4.222273349761963,-0.4285852313041687
1770950140677367000,14.100366943359376,8.846290588378906,4.209419250488281,-0.4408227503299713
1770950140696336000,14.1193359375,8.858031272888184,4.181942462921143,-0.4658536911010742
1770950140715304700,14.1383046875,8.8723726272583,4.1484198570251465,-0.49193236231803894
1770950140734273500,14.1572734375,8.891401290893555,4.105664253234863,-0.506833016872406
1770950140753242400,14.176242431640626,8.918667793273926,4.046387195587158,-0.5044787526130676
1770950140772211200,14.195211181640625,8.951354026794434,3.9765310287475586,-0.48047780990600586
1770950140791179800,14.2141796875,8.986413955688477,3.8993213176727295,-0.4582976698875427
1770950140810148600,14.233148681640625,9.025527954101562,3.806215286254883,-0.4721653461456299
1770950140829117400,14.252117431640626,9.066305160522461,3.6990182399749756,-0.5383021235466003
1770950140848086300,14.271086181640625,9.094329833984375,3.61566162109375,-0.6249391436576843
1770950140867055000,14.29005517578125,9.099454879760742,3.5973081588745117,-0.6555001735687256
1770950140886023700,14.309023681640625,9.086538314819336,3.635895252227783,-0.6208547353744507
1770950140904992500,14.327992431640626,9.074261665344238,3.673382520675659,-0.578283429145813
1770950140923961300,14.34696142578125,9.069284439086914,3.688627243041992,-0.5590226650238037
1770950140942930200,14.36593017578125,9.069109916687012,3.6906139850616455,-0.5486325621604919
1770950140961899000,14.38489892578125,9.072172164916992,3.6847832202911377,-0.5370845198631287
1770950140980867800,14.403867919921876,9.076030731201172,3.6750423908233643,-0.5386192202568054
1770950140999836400,14.42283642578125,9.076125144958496,3.672153949737549,-0.5564488172531128
1770950141018805200,14.44180517578125,9.066705703735352,3.6925289630889893,-0.574861466884613
1770950141037774000,14.460774169921875,9.049308776855469,3.734260082244873,-0.5793818831443787
1770950141056743000,14.479742919921875,9.027268409729004,3.788045883178711,-0.5740476250648499
1770950141075711500,14.49871142578125,9.002826690673828,3.845486640930176,-0.5759573578834534
1770950141094680300,14.517680419921875,8.978537559509277,3.8999435901641846,-0.5887994766235352
1770950141113649200,14.536649169921875,8.954432487487793,3.951190710067749,-0.613686203956604
1770950141132618000,14.555617919921875,8.927597045898438,4.006679534912109,-0.6441382765769958
1770950141151586800,14.5745869140625,8.900702476501465,4.0609002113342285,-0.6759992241859436
1770950141170555600,14.5935556640625,8.880631446838379,4.097451210021973,-0.7181029319763184
1770950141189524200,14.612524169921874,8.872504234313965,4.103240489959717,-0.7826086282730103
1770950141208493000,14.6314931640625,8.87947940826416,4.0718793869018555,-0.8631455302238464
1770950141227462000,14.6504619140625,8.89390754699707,4.0215253829956055,-0.9466409683227539
1770950141246430700,14.6694306640625,8.905734062194824,3.9780499935150146,-1.0165678262710571
1770950141265399300,14.6883994140625,8.915007591247559,3.946333169937134,-1.0580588579177856
1770950141284368100,14.7073681640625,8.917704582214355,3.9333109855651855,-1.0835038423538208
1770950141303337000,14.7263369140625,8.927770614624023,3.911876678466797,-1.0782023668289185
1770950141322305800,14.745305908203125,8.952824592590332,3.859424352645874,-1.059314250946045
1770950141341274600,14.764274658203124,8.977556228637695,3.801060676574707,-1.0610432624816895
1770950141360243200,14.7832431640625,8.977938652038574,3.8001933097839355,-1.060914397239685
1770950141379212000,14.8022119140625,8.944249153137207,3.8945093154907227,-1.0017999410629272
1770950141398180900,14.821180908203125,8.893982887268066,4.043703079223633,-0.8461205363273621
1770950141417149700,14.840149658203124,8.84866714477539,4.175093173980713,-0.6633872985839844
1770950141436118300,14.8591181640625,8.825047492980957,4.244016647338867,-0.5265330672264099
1770950141455087000,14.878087158203124,8.824535369873047,4.254257678985596,-0.4463905394077301
1770950141474056000,14.897055908203125,8.837501525878906,4.231983184814453,-0.39908257126808167
1770950141493024800,14.916024658203124,8.854680061340332,4.198000907897949,-0.37657496333122253
1770950141511993600,14.93499365234375,8.872361183166504,4.159528732299805,-0.3871999979019165
1770950141530962200,14.953962158203124,8.888934135437012,4.120898246765137,-0.418856143951416
1770950141549931000,14.972930908203125,8.899632453918457,4.09459114074707,-0.4486057162284851
1770950141568899800,14.99189990234375,8.902856826782227,4.087827682495117,-0.4463012218475342
1770950141587868700,15.01086865234375,8.900634765625,4.097456932067871,-0.39992332458496094
1770950141606837200,15.029837158203126,8.894612312316895,4.116838455200195,-0.328482985496521
1770950141625806000,15.04880615234375,8.888065338134766,4.136302471160889,-0.25235581398010254
1770950141644775000,15.06777490234375,8.88232135772705,4.151820659637451,-0.1927078664302826
1770950141663743700,15.08674365234375,8.88255500793457,4.152988910675049,-0.15257975459098816
1770950141682712300,15.10571240234375,8.88924503326416,4.139325141906738,-0.13298825919628143
1770950141701681200,15.12468115234375,8.898061752319336,4.120254039764404,-0.135647714138031
1770950141720650000,15.14364990234375,8.910037994384766,4.093815803527832,-0.1493373066186905
1770950141739618800,15.162618896484375,8.931137084960938,4.0469160079956055,-0.16623829305171967
1770950141758587600,15.181587646484376,8.965412139892578,3.9689009189605713,-0.19899463653564453
1770950141777556200,15.20055615234375,9.012267112731934,3.8578402996063232,-0.2578814625740051
1770950141796525000,15.219525146484376,9.061173439025879,3.735882043838501,-0.32968780398368835
1770950141815494000,15.238493896484375,9.099111557006836,3.6375460624694824,-0.3805607259273529
1770950141834462700,15.257462646484376,9.121318817138672,3.5784177780151367,-0.40849003195762634
1770950141853431300,15.276431396484375,9.129589080810547,3.5542049407958984,-0.4342952072620392
1770950141872400100,15.295400146484376,9.135997772216797,3.5315680503845215,-0.4816209375858307
1770950141891369000,15.314368896484375,9.144952774047852,3.4961435794830322,-0.5632100701332092
1770950141910337500,15.333337646484376,9.152087211608887,3.4633758068084717,-0.6439867615699768
1770950141929306400,15.352306396484375,9.153943061828613,3.4518320560455322,-0.6786375045776367
1770950141948275200,15.371275146484376,9.151409149169922,3.461803674697876,-0.6618267297744751
1770950141967244000,15.390244140625,9.142317771911621,3.4909827709198,-0.6336057782173157
1770950141986212900,15.409212890625,9.128849983215332,3.5312557220458984,-0.603927731513977
1770950142005181400,15.428181396484375,9.11303424835205,3.5776491165161133,-0.5686943531036377
1770950142024150300,15.447150390625,9.098506927490234,3.6210427284240723,-0.5249802470207214
1770950142043119000,15.466119140625,9.086642265319824,3.656351089477539,-0.4841572344303131
1770950142062087700,15.485087646484375,9.074666976928711,3.689786434173584,-0.45418381690979004
1770950142081056500,15.504056396484375,9.058576583862305,3.732806444168091,-0.4227660298347473
1770950142100025300,15.523025390625,9.038247108459473,3.785752058029175,-0.38542404770851135
1770950142118994200,15.541994140625,9.016463279724121,3.840599298477173,-0.35151761770248413
1770950142137962800,15.560962646484375,8.995990753173828,3.8905558586120605,-0.32572081685066223
1770950142156931600,15.579931640625,8.980559349060059,3.926997661590576,-0.31406790018081665
1770950142175900400,15.598900390625,8.9719877243042,3.9462623596191406,-0.3175455629825592
1770950142194869000,15.617868896484374,8.968199729919434,3.9536428451538086,-0.3324111998081207
1770950142213837800,15.636837890625,8.962995529174805,3.9635019302368164,-0.3545970618724823
1770950142232806700,15.655806640625,8.949963569641113,3.989421844482422,-0.3912101089954376
1770950142251775200,15.674775146484375,8.934871673583984,4.018376350402832,-0.43715500831604004
1770950142270744000,15.693744140625,8.92605972290039,4.032349586486816,-0.48578932881355286
1770950142289713000,15.712712890625,8.924416542053223,4.0279059410095215,-0.548780620098114
1770950142308681700,15.731681640625,8.931281089782715,4.002334117889404,-0.6196205615997314
1770950142327650300,15.750650390625,8.940130233764648,3.970992088317871,-0.6896851658821106
1770950142346619100,15.769619140625,8.943586349487305,3.954914093017578,-0.7357344031333923
1770950142365588000,15.788587890625,8.955900192260742,3.9278364181518555,-0.7309784889221191
1770950142384556500,15.807556640625,8.979042053222656,3.875112771987915,-0.7284845113754272
1770950142403525400,15.826525390625,9.000306129455566,3.815054416656494,-0.7811788320541382
1770950142422494200,15.845494140625,9.006460189819336,3.7844581604003906,-0.8555336594581604
1770950142441462800,15.864462890625,9.003100395202637,3.791898250579834,-0.8579428195953369
1770950142460431600,15.883431640625,8.99816608428955,3.8236167430877686,-0.7637711763381958
1770950142479400400,15.902400390625,8.997099876403809,3.8505496978759766,-0.6291561722755432
1770950142498369000,15.921369140625,9.005012512207031,3.8440520763397217,-0.5508103966712952
1770950142517337900,15.940337890625,9.023082733154297,3.800527811050415,-0.5571035742759705
1770950142536306700,15.959306640625,9.0480375289917,3.7301573753356934,-0.6239671111106873
1770950142555275300,15.978275146484375,9.074109077453613,3.648608922958374,-0.7201287746429443
1770950142574244000,15.997244140625,9.092049598693848,3.5803239345550537,-0.8284368515014648
1770950142593213000,16.016212890625,9.092483520507812,3.5531177520751953,-0.9340624213218689
1770950142612181500,16.035181396484376,9.07736587524414,3.569051504135132,-1.0167049169540405
1770950142631150300,16.054150390625,9.05312728881836,3.620025873184204,-1.0519996881484985
1770950142650119200,16.073119140625,9.022186279296875,3.7017781734466553,-1.0331321954727173
1770950142669087700,16.092087646484377,8.98707103729248,3.800718069076538,-0.9785070419311523
1770950142688056600,16.111056640625,8.952528953552246,3.896022081375122,-0.9184903502464294
1770950142707025400,16.130025390625,8.924970626831055,3.9679079055786133,-0.8780684471130371
1770950142725994000,16.148993896484374,8.904555320739746,4.01666259765625,-0.8635348081588745
1770950142744962800,16.167962890625,8.89096736907959,4.0468430519104,-0.8626446723937988
1770950142763931600,16.186931640625,8.886587142944336,4.054394721984863,-0.872262179851532
1770950142782900200,16.205900146484375,8.890190124511719,4.041088104248047,-0.8969513177871704
1770950142801869000,16.224869140625,8.899073600769043,4.0149335861206055,-0.9258435368537903
1770950142820837600,16.243837646484376,8.91335678100586,3.977442979812622,-0.9499526619911194
1770950142839806500,16.262806396484375,8.937878608703613,3.917463779449463,-0.9686026573181152
1770950142858775300,16.281775390625,8.976188659667969,3.8256824016571045,-0.9811069369316101
1770950142877744000,16.300744140625,9.016437530517578,3.7308218479156494,-0.9773522019386292
1770950142896712700,16.319712646484376,9.048450469970703,3.659273386001587,-0.9516497850418091
1770950142915681300,16.338681396484375,9.062716484069824,3.6239874362945557,-0.9509271383285522
1770950142934650000,16.357650146484374,9.064209938049316,3.604384183883667,-1.0094108581542969
1770950142953619000,16.376618896484374,9.071878433227539,3.5527095794677734,-1.1178860664367676
1770950142972587800,16.395587890625,9.098858833312988,3.446868896484375,-1.2248473167419434
1770950142991556400,16.414556396484375,9.14931583404541,3.2818005084991455,-1.300068736076355
1770950143010525200,16.433525146484374,9.207801818847656,3.094498872756958,-1.3456822633743286
1770950143029493800,16.45249365234375,9.250149726867676,2.9513094425201416,-1.3765493631362915
1770950143048462600,16.471462646484376,9.270125389099121,2.8860361576080322,-1.3805574178695679
1770950143067431200,16.49043115234375,9.275100708007812,2.8859288692474365,-1.3469594717025757
1770950143086400000,16.50939990234375,9.272762298583984,2.919142246246338,-1.290297031402588
1770950143105368800,16.528368896484373,9.269064903259277,2.96252179145813,-1.2158582210540771
1770950143124337400,16.54733740234375,9.267169952392578,3.0024192333221436,-1.129350185394287
1770950143143306200,16.56630615234375,9.261978149414062,3.0499651432037354,-1.0410841703414917
1770950143162274800,16.58527490234375,9.243992805480957,3.127394199371338,-0.9687062501907349
1770950143181243600,16.60424365234375,9.210806846618652,3.242082118988037,-0.9057201147079468
1770950143200212200,16.623212158203124,9.168334007263184,3.377600908279419,-0.8389496803283691
1770950143219181000,16.64218115234375,9.12653923034668,3.5045201778411865,-0.7713761925697327
1770950143238150000,16.66114990234375,9.094476699829102,3.598811388015747,-0.7137531638145447
1770950143257118500,16.680118408203125,9.078537940979004,3.6452627182006836,-0.6801469922065735
1770950143276087300,16.69908740234375,9.080360412597656,3.6422135829925537,-0.6721020936965942
1770950143295056000,16.718055908203127,9.094836235046387,3.601738452911377,-0.6941400170326233
1770950143314024700,16.737024658203126,9.110721588134766,3.5511796474456787,-0.7444878816604614
1770950143332993500,16.75599365234375,9.11704158782959,3.5212793350219727,-0.8065649271011353
1770950143351962000,16.774962158203124,9.116582870483398,3.5122270584106445,-0.850042998790741
1770950143370931000,16.793930908203127,9.12079906463623,3.500131607055664,-0.8546884655952454
1770950143389899500,16.8128994140625,9.13545036315918,3.465308427810669,-0.8399825096130371
1770950143408868400,16.831868408203125,9.15990161895752,3.4005682468414307,-0.8382925391197205
1770950143427837000,16.8508369140625,9.192536354064941,3.3031423091888428,-0.870013415813446
1770950143446805800,16.8698056640625,9.225873947143555,3.193272590637207,-0.9255450367927551
1770950143465774300,16.8887744140625,9.242571830749512,3.1320486068725586,-0.9672217965126038
1770950143484743200,16.9077431640625,9.232192993164062,3.1649632453918457,-0.9591698050498962
1770950143503712000,16.9267119140625,9.194619178771973,3.290067434310913,-0.8971173763275146
1770950143522680600,16.9456806640625,9.143779754638672,3.458035707473755,-0.7769692540168762
1770950143541649400,16.9646494140625,9.11709213256836,3.5617318153381348,-0.6025760173797607
1770950143560618000,16.983617919921876,9.144325256347656,3.5099921226501465,-0.48131904006004333
1770950143579586800,17.0025869140625,9.216915130615234,3.321784496307373,-0.4296471178531647
1770950143598555400,17.021555419921874,9.295413970947266,3.1000630855560303,-0.3940504193305969
1770950143617524200,17.040524169921873,9.345285415649414,2.9497578144073486,-0.3673604428768158
1770950143636492800,17.059492919921876,9.355224609375,2.923438787460327,-0.32197657227516174
1770950143655461600,17.078461669921875,9.337669372558594,2.9866809844970703,-0.24094828963279724
1770950143674430200,17.09743017578125,9.31922721862793,3.050119161605835,-0.1384003609418869
1770950143693399000,17.11639892578125,9.3153715133667,3.0644938945770264,-0.05578820779919624
1770950143712367600,17.13536767578125,9.325284004211426,3.034682512283325,-0.012379671446979046
1770950143731336400,17.15433642578125,9.339609146118164,2.9903314113616943,-0.0006711038877256215
1770950143750305000,17.173304931640626,9.351825714111328,2.9519002437591553,-0.006186122540384531
1770950143769273900,17.19227392578125,9.35826301574707,2.9312946796417236,-0.028412533923983574
1770950143788242400,17.211242431640624,9.359404563903809,2.9271504878997803,-0.06108503043651581
1770950143807211300,17.230211181640627,9.357039451599121,2.933839797973633,-0.09367981553077698
1770950143826179800,17.249179931640626,9.352140426635742,2.9484353065490723,-0.12076549977064133
1770950143845148700,17.268148681640625,9.344199180603027,2.972438097000122,-0.14465132355690002
1770950143864117200,17.2871171875,9.33042049407959,3.0144166946411133,-0.16406360268592834
1770950143883086000,17.306086181640627,9.30571460723877,3.089189291000366,-0.17600186169147491
1770950143902054700,17.3250546875,9.268695831298828,3.1988489627838135,-0.17039042711257935
1770950143921023500,17.3440234375,9.22302532196045,3.3299055099487305,-0.13390333950519562
1770950143939992000,17.362991943359376,9.172589302062988,3.468409776687622,-0.0643274262547493
1770950143958961000,17.3819609375,9.122623443603516,3.5983269214630127,0.013330242596566677
1770950143977929500,17.400929443359374,9.081466674804688,3.699923276901245,0.08897355198860168
1770950143996898000,17.41989794921875,9.0614595413208,3.745986223220825,0.1671159714460373
1770950144015867000,17.438866943359375,9.068782806396484,3.7245845794677734,0.23463867604732513
1770950144034835500,17.45783544921875,9.097016334533691,3.652637481689453,0.2700279653072357
1770950144053804300,17.47680419921875,9.131307601928711,3.566058397293091,0.2698734700679779
1770950144072772900,17.49577294921875,9.156786918640137,3.5005455017089844,0.26422256231307983
1770950144091741700,17.51474169921875,9.160191535949707,3.4910449981689453,0.2718318700790405
1770950144110710300,17.533710205078126,9.131341934204102,3.5660512447357178,0.26881685853004456
1770950144129679000,17.55267919921875,9.079641342163086,3.6981682777404785,0.23248305916786194
1770950144148647700,17.571647705078124,9.034337043762207,3.8118464946746826,0.14481784403324127
1770950144167616500,17.590616455078123,9.030176162719727,3.8244338035583496,0.003955202177166939
1770950144186585000,17.609585205078126,9.07359504699707,3.716120719909668,-0.1752418428659439
1770950144205554000,17.628553955078125,9.12984561920166,3.5609991550445557,-0.36822405457496643
1770950144224522500,17.6475224609375,9.174080848693848,3.4286625385284424,-0.5009015202522278
1770950144243491000,17.666490966796875,9.196745872497559,3.355394124984741,-0.5758249163627625
1770950144262460000,17.6854599609375,9.207064628601074,3.3238797187805176,-0.5934277176856995
1770950144281428500,17.704428466796877,9.213738441467285,3.309865951538086,-0.5676203370094299
1770950144300397300,17.723397216796876,9.221029281616211,3.2944929599761963,-0.5378870964050293
1770950144319366000,17.742365966796875,9.231497764587402,3.2660903930664062,-0.5315008759498596
1770950144338334500,17.76133447265625,9.242846488952637,3.2304558753967285,-0.551652193069458
1770950144357303300,17.78030322265625,9.251144409179688,3.2010765075683594,-0.5829505324363708
1770950144376272000,17.79927197265625,9.251242637634277,3.195558786392212,-0.6109920740127563
1770950144395240400,17.818240478515627,9.237546920776367,3.231085777282715,-0.6310354471206665
1770950144414209300,17.837209228515626,9.209583282470703,3.3055334091186523,-0.6537697911262512
1770950144433177900,17.856177734375,9.174361228942871,3.395524263381958,-0.6869400143623352
1770950144452146700,17.875146728515624,9.14189624786377,3.4697890281677246,-0.7461140155792236
1770950144471115300,17.894115234375,9.119894981384277,3.5070457458496094,-0.8357766270637512
1770950144490084000,17.913083984375,9.106002807617188,3.512742519378662,-0.9548543691635132
1770950144509052700,17.932052734375,9.092700004577637,3.5016815662384033,-1.1096879243850708
1770950144528021500,17.951021484375,9.076529502868652,3.4777941703796387,-1.3007506132125854
1770950144546990000,17.969989990234374,9.0578031539917,3.441380262374878,-1.5111223459243774
1770950144565958700,17.988958740234374,9.040854454040527,3.3853540420532227,-1.724157691001892
1770950144584927200,18.00792724609375,9.030569076538086,3.3061532974243164,-1.9205613136291504
1770950144603896000,18.02689599609375,9.030694007873535,3.2086000442504883,-2.0789031982421875
1770950144622864600,18.04586474609375,9.03704833984375,3.1142921447753906,-2.1916487216949463
1770950144641833500,18.06483349609375,9.022984504699707,3.0781004428863525,-2.298139810562134
1770950144660802000,18.083802001953124,8.981050491333008,3.1155636310577393,-2.409226894378662
1770950144679771000,18.10277099609375,8.934157371520996,3.1784915924072266,-2.4996836185455322
1770950144698739500,18.121739501953126,8.88728141784668,3.246980667114258,-2.5775418281555176
1770950144717708000,18.1407080078125,8.834074974060059,3.3492400646209717,-2.6290881633758545
1770950144736676600,18.159676513671876,8.790776252746582,3.475957155227661,-2.609668493270874
1770950144755645400,18.1786455078125,8.785360336303711,3.5674326419830322,-2.5022525787353516
1770950144774614000,18.197614013671874,8.822093963623047,3.583056688308716,-2.3457915782928467
1770950144793582800,18.216582763671877,8.8745698928833,3.5386087894439697,-2.211479663848877
1770950144812551400,18.235551513671876,8.924928665161133,3.4521212577819824,-2.144502878189087
1770950144831520000,18.25452001953125,8.966757774353027,3.3385608196258545,-2.149803400039673
1770950144850488600,18.273488525390626,8.992827415466309,3.2192156314849854,-2.2217302322387695
1770950144869457400,18.29245751953125,9.003560066223145,3.1054892539978027,-2.337144374847412
1770950144888426000,18.311426025390624,9.001635551452637,3.0089426040649414,-2.4672248363494873
1770950144907394600,18.33039453125,8.994072914123535,2.9441182613372803,-2.5708372592926025
1770950144926363400,18.34936328125,8.991494178771973,2.9224185943603516,-2.604398250579834
1770950144945332000,18.36833203125,9.001474380493164,2.9477431774139404,-2.5406041145324707
1770950144964300500,18.387300537109375,9.023917198181152,3.008972406387329,-2.384402275085449
1770950144983269400,18.406269287109374,9.053373336791992,3.0852839946746826,-2.165146827697754
1770950145002238000,18.425238037109374,9.0809907913208,3.1537599563598633,-1.9390212297439575
1770950145021206800,18.444206787109376,9.10312271118164,3.1902592182159424,-1.767991065979004
1770950145040175400,18.46317529296875,9.12044620513916,3.184918165206909,-1.6864577531814575
1770950145059144000,18.48214404296875,9.134777069091797,3.149813413619995,-1.674786925315857
1770950145078112800,18.50111279296875,9.149496078491211,3.1020078659057617,-1.6836419105529785
1770950145097081300,18.520081298828124,9.163423538208008,3.060750722885132,-1.6834144592285156
1770950145116050000,18.5390498046875,9.176300048828125,3.0317203998565674,-1.6656990051269531
1770950145135018500,18.5580185546875,9.194150924682617,3.0010323524475098,-1.6222761869430542
1770950145153987300,18.5769873046875,9.225778579711914,2.946612596511841,-1.5404115915298462
1770950145172956000,18.595955810546876,9.269089698791504,2.8723456859588623,-1.4156228303909302
1770950145191924500,18.614924560546875,9.318351745605469,2.78739333152771,-1.2526602745056152
1770950145210893000,18.63389306640625,9.365117073059082,2.7062699794769287,-1.0682168006896973
1770950145229862000,18.65286181640625,9.401820182800293,2.656623125076294,-0.8476607799530029
1770950145248830500,18.67183056640625,9.4158935546875,2.6784255504608154,-0.5808432698249817
1770950145267799300,18.69079931640625,9.397945404052734,2.7850382328033447,-0.304258793592453
1770950145286767900,18.709767822265626,9.354888916015625,2.9412641525268555,-0.07350900024175644
1770950145305736400,18.728736328125,9.308738708496094,3.0839102268218994,0.08524812012910843
1770950145324705000,18.747705078125,9.27670669555664,3.1762545108795166,0.15652130544185638
1770950145343673900,18.766673828125,9.26809024810791,3.202279567718506,0.13524290919303894
1770950145362642400,18.785642333984374,9.273218154907227,3.1897923946380615,0.0550093874335289
1770950145381611000,18.804611083984376,9.274275779724121,3.1869192123413086,-0.04169239103794098
1770950145400579800,18.823579833984375,9.261026382446289,3.2235372066497803,-0.11215340346097946
1770950145419548200,18.842548095703126,9.22966480255127,3.310884475708008,-0.14741834998130798
1770950145438517000,18.86151708984375,9.185172080993652,3.4318549633026123,-0.1592818647623062
1770950145457485600,18.880485595703124,9.135764122009277,3.5605289936065674,-0.17559456825256348
1770950145476454100,18.8994541015625,9.087451934814453,3.67985200881958,-0.21744446456432343
1770950145495423000,18.918423095703126,9.045271873474121,3.7775018215179443,-0.2896974980831146
1770950145514391600,18.9373916015625,9.014057159423828,3.8432211875915527,-0.3831673860549927
1770950145533360000,18.956360107421876,8.994104385375977,3.876877784729004,-0.49627649784088135
1770950145552328700,18.97532861328125,8.988276481628418,3.8710074424743652,-0.6297467947006226
1770950145571297500,18.994297607421874,8.990314483642578,3.833237886428833,-0.8067989945411682
1770950145590266000,19.01326611328125,8.9863920211792,3.789936065673828,-1.0254379510879517
1770950145609234700,19.032234619140624,8.966639518737793,3.7675907611846924,-1.2549952268600464
1770950145628203300,19.051203369140627,8.935771942138672,3.7742245197296143,-1.441385269165039
1770950145647172000,19.070172119140626,8.903111457824707,3.809725761413574,-1.5462795495986938
1770950145666140700,19.089140625,8.884149551391602,3.8525643348693848,-1.5491951704025269
1770950145685109200,19.108109130859376,8.886054992675781,3.8694956302642822,-1.4951339960098267
1770950145704078000,19.127078125,8.886554718017578,3.87556791305542,-1.4763127565383911
1770950145723046400,19.14604638671875,8.866140365600586,3.9052557945251465,-1.5201709270477295
1770950145742015200,19.16501513671875,8.833776473999023,3.9685330390930176,-1.5445137023925781
1770950145760983800,19.18398388671875,8.810811042785645,4.045339584350586,-1.474867582321167
1770950145779952400,19.202952392578126,8.807350158691406,4.105283737182617,-1.3219778537750244
1770950145798921000,19.2219208984375,8.812389373779297,4.141654968261719,-1.1657062768936157
1770950145817889800,19.240889892578124,8.821026802062988,4.151872634887695,-1.059168815612793
1770950145836858400,19.2598583984375,8.839452743530273,4.127479553222656,-0.9991851449012756
1770950145855827000,19.278826904296874,8.876038551330566,4.0573296546936035,-0.9614642858505249
1770950145874795800,19.297795654296873,8.932881355285645,3.936218023300171,-0.9381870031356812
1770950145893764000,19.31676416015625,8.996018409729004,3.791818857192993,-0.9295879602432251
1770950145912733000,19.33573291015625,9.050837516784668,3.6596693992614746,-0.9271169304847717
1770950145931701500,19.354701416015626,9.087817192077637,3.569118022918701,-0.9183470010757446
1770950145950670000,19.373670166015625,9.098244667053223,3.5474765300750732,-0.8987382650375366
1770950145969639000,19.392638916015624,9.083625793457031,3.5999855995178223,-0.8355989456176758
1770950145988607500,19.411607421875,9.055026054382324,3.694140672683716,-0.7281715869903564
1770950146007576000,19.430576171875,9.027303695678711,3.7830965518951416,-0.6052733659744263
1770950146026544600,19.449544677734377,9.012322425842285,3.8327462673187256,-0.5084366202354431
1770950146045513200,19.46851318359375,9.013327598571777,3.8351166248321533,-0.4713871479034424
1770950146064481800,19.487481689453126,9.022682189941406,3.808359146118164,-0.5079478025436401
1770950146083450600,19.50645068359375,9.032193183898926,3.773364305496216,-0.5929688811302185
1770950146102419200,19.525419189453125,9.043705940246582,3.7287814617156982,-0.691361129283905
1770950146121387800,19.5443876953125,9.06419563293457,3.6609363555908203,-0.7799360156059265
1770950146140356600,19.563356689453126,9.098133087158203,3.557188034057617,-0.8606933355331421
1770950146159325200,19.5823251953125,9.141108512878418,3.4243903160095215,-0.9402493238449097
1770950146178293800,19.601293701171876,9.185870170593262,3.2794642448425293,-1.0174840688705444
1770950146197262300,19.620262451171875,9.222258567810059,3.1449341773986816,-1.108923316001892
1770950146216231000,19.63923095703125,9.248283386230469,3.0291154384613037,-1.2100005149841309
1770950146235199700,19.65819970703125,9.265103340148926,2.9307167530059814,-1.3187662363052368
1770950146254168300,19.677168212890624,9.27177619934082,2.866671085357666,-1.409520149230957
1770950146273137000,19.696136962890623,9.268464088439941,2.8615920543670654,-1.4412691593170166
1770950146292105500,19.71510546875,9.258368492126465,2.9147164821624756,-1.399080753326416
1770950146311074300,19.73407421875,9.246997833251953,2.9909017086029053,-1.3107004165649414
1770950146330043000,19.75304296875,9.235183715820312,3.060638189315796,-1.2305539846420288
1770950146349011500,19.772011474609375,9.222256660461426,3.120833396911621,-1.1750612258911133
1770950146367980000,19.79097998046875,9.208572387695312,3.1775922775268555,-1.129374384880066
1770950146386948600,19.809948486328125,9.193997383117676,3.2332193851470947,-1.0895415544509888
1770950146405917400,19.82891748046875,9.178813934326172,3.288102626800537,-1.052688717842102
1770950146424886000,19.847885986328127,9.16350269317627,3.3407797813415527,-1.0197099447250366
1770950146443854600,19.8668544921875,9.150028228759766,3.384009838104248,-0.9979131817817688
1770950146462823200,19.8858232421875,9.142004013061523,3.4061825275421143,-0.9960259199142456
1770950146481791700,19.904791748046875,9.1422758102417,3.39947772026062,-1.0162328481674194
1770950146500760600,19.923760498046875,9.148457527160645,3.3683207035064697,-1.0632648468017578
1770950146519729200,19.942729248046874,9.152267456054688,3.333117961883545,-1.1387274265289307
1770950146538697700,19.96169775390625,9.147918701171875,3.313629388809204,-1.2271300554275513
1770950146557666300,19.980666259765623,9.138748168945312,3.3022665977478027,-1.3223897218704224
1770950146576635100,19.99963525390625,9.128925323486328,3.285461664199829,-1.4278833866119385
1770950146595603700,20.018603759765625,9.116276741027832,3.2670860290527344,-1.5459794998168945
1770950146614572300,20.037572265625,9.102743148803711,3.2484817504882812,-1.6606700420379639
1770950146633540900,20.056540771484375,9.089125633239746,3.2363853454589844,-1.7561306953430176
1770950146652509400,20.075509521484374,9.079679489135742,3.2345874309539795,-1.8075584173202515
1770950146671478300,20.094478271484373,9.074161529541016,3.2392961978912354,-1.8267250061035156
1770950146690446800,20.11344677734375,9.076544761657715,3.2306134700775146,-1.8302617073059082
1770950146709415400,20.13241552734375,9.095170974731445,3.1733016967773438,-1.8380461931228638
1770950146728384000,20.151384033203126,9.125494956970215,3.0587501525878906,-1.8814281225204468
1770950146747352800,20.170352783203125,9.150779724121094,2.9375805854797363,-1.9504458904266357
1770950146766321400,20.1893212890625,9.170727729797363,2.8687379360198975,-1.9592052698135376
1770950146785290000,20.2082900390625,9.187755584716797,2.884190559387207,-1.8539094924926758
1770950146804258800,20.2272587890625,9.19992446899414,2.9691553115844727,-1.6479896306991577
1770950146823227400,20.246227294921876,9.215713500976562,3.035649299621582,-1.4233206510543823
1770950146842196000,20.265196044921876,9.242755889892578,3.0233681201934814,-1.2653441429138184
1770950146861164500,20.28416455078125,9.278951644897461,2.942906141281128,-1.1877497434616089
1770950146880133000,20.303133056640625,9.317936897277832,2.8307745456695557,-1.1546270847320557
1770950146899101700,20.322101806640624,9.348814964294434,2.733732223510742,-1.1387474536895752
1770950146918070500,20.341070556640624,9.366496086120605,2.685807228088379,-1.1070606708526611
1770950146937039000,20.3600390625,9.372453689575195,2.690645217895508,-1.043034315109253
1770950146956007700,20.379007568359373,9.36954116821289,2.7325685024261475,-0.9566351771354675
1770950146974976500,20.3979765625,9.36120319366455,2.792994737625122,-0.8587417602539062
1770950146993945000,20.416945068359375,9.350529670715332,2.8582561016082764,-0.753890872001648
1770950147012913700,20.43591357421875,9.3411865234375,2.9122116565704346,-0.6569951176643372
1770950147031882200,20.45488232421875,9.335755348205566,2.9439926147460938,-0.5890496373176575
1770950147050851000,20.47385107421875,9.333280563354492,2.9598348140716553,-0.5473877191543579
1770950147069819600,20.492819580078127,9.330504417419434,2.9723851680755615,-0.5263039469718933
1770950147088788200,20.511788330078126,9.324997901916504,2.9908742904663086,-0.519098162651062
1770950147107756800,20.5307568359375,9.317134857177734,3.0145058631896973,-0.5236010551452637
1770950147126725400,20.549725341796876,9.312921524047852,3.0255484580993652,-0.5347132086753845
1770950147145694200,20.568694091796875,9.317988395690918,3.006833553314209,-0.5517606139183044
1770950147164662800,20.587662841796874,9.33341121673584,2.954664707183838,-0.5725230574607849
1770950147183631400,20.60663134765625,9.35629653930664,2.8792524337768555,-0.5831108689308167
1770950147202600000,20.625599853515624,9.383838653564453,2.7885313034057617,-0.5814259052276611
1770950147221568800,20.64456884765625,9.410120964050293,2.69382643699646,-0.6027600765228271
1770950147240537300,20.663537353515625,9.433126449584961,2.600090503692627,-0.6527302861213684
1770950147259506000,20.682505859375,9.453254699707031,2.508659601211548,-0.7162318229675293
1770950147278474800,20.701474853515624,9.469664573669434,2.4374117851257324,-0.7448933124542236
1770950147297443300,20.720443359375,9.4771146774292,2.4171907901763916,-0.7154458165168762
1770950147316412000,20.739411865234374,9.469338417053223,2.4667985439300537,-0.6456937789916992
1770950147335380500,20.75838037109375,9.452435493469238,2.550337791442871,-0.5635729432106018
1770950147354349000,20.77734912109375,9.43606185913086,2.623617172241211,-0.49774524569511414
1770950147373317600,20.796317626953126,9.424700736999512,2.6713759899139404,-0.457335889339447
1770950147392286500,20.815286376953125,9.416991233825684,2.701547622680664,-0.43853628635406494
1770950147411255000,20.834255126953124,9.412660598754883,2.7168476581573486,-0.4369678199291229
1770950147430223600,20.8532236328125,9.41198444366455,2.715378999710083,-0.46005260944366455
1770950147449192400,20.8721923828125,9.41120433807373,2.7097628116607666,-0.5067585110664368
1770950147468161000,20.8911611328125,9.408649444580078,2.7082679271698,-0.5594419240951538
1770950147487129600,20.910129638671876,9.407175064086914,2.704547643661499,-0.6007341742515564
1770950147506098200,20.92909814453125,9.408047676086426,2.694002628326416,-0.6335446834564209
1770950147525067000,20.94806689453125,9.410760879516602,2.6756954193115234,-0.669794499874115
1770950147544035600,20.96703564453125,9.412897109985352,2.6543502807617188,-0.7226138710975647
1770950147563004200,20.986004150390624,9.408834457397461,2.6490824222564697,-0.7915717363357544
1770950147581972700,21.00497265625,9.39419937133789,2.6775059700012207,-0.8662340641021729
1770950147600941300,21.02394140625,9.369402885437012,2.7408995628356934,-0.9338851571083069
1770950147619910100,21.04291015625,9.341304779052734,2.81538462638855,-0.9919751286506653
1770950147638878700,21.061878662109375,9.314111709594727,2.883075714111328,-1.0514723062515259
1770950147657847300,21.080847412109375,9.290308952331543,2.9377222061157227,-1.1092045307159424
1770950147676816000,21.09981591796875,9.276847839355469,2.966512441635132,-1.144682765007019
1770950147695784700,21.11878466796875,9.278014183044434,2.961529016494751,-1.1481257677078247
1770950147714753300,21.137753173828123,9.292840003967285,2.919670820236206,-1.1353615522384644
1770950147733721900,21.156721923828126,9.309700012207031,2.8593857288360596,-1.1505577564239502
1770950147752690400,21.1756904296875,9.319659233093262,2.817187547683716,-1.1737959384918213
1770950147771659000,21.194658935546876,9.311309814453125,2.842200756072998,-1.179752230644226
1770950147790627800,21.2136279296875,9.286961555480957,2.935755729675293,-1.1419564485549927
1770950147809596400,21.232596435546874,9.257887840270996,3.0599114894866943,-1.0482572317123413
1770950147828565000,21.25156494140625,9.234501838684082,3.155381679534912,-0.968464195728302
1770950147847533600,21.270533447265624,9.230620384216309,3.176171064376831,-0.9369966387748718
1770950147866502100,21.289502197265627,9.253021240234375,3.1060285568237305,-0.9510857462882996
1770950147885471000,21.308470947265626,9.284481048583984,2.997148275375366,-0.9929192066192627
1770950147904439600,21.327439453125,9.306939125061035,2.9053449630737305,-1.0536731481552124
1770950147923408100,21.346408203125,9.316506385803223,2.848153591156006,-1.1229939460754395
1770950147942376700,21.365376708984375,9.317535400390625,2.814094305038452,-1.1978228092193604
1770950147961345500,21.384345458984374,9.317652702331543,2.7859766483306885,-1.2609789371490479
1770950147980314000,21.403314208984376,9.322525024414062,2.749976873397827,-1.3032833337783813
1770950147999282700,21.42228271484375,9.335588455200195,2.701735258102417,-1.310649037361145
1770950148018251300,21.441251220703126,9.35766887664795,2.6286959648132324,-1.3016839027404785
1770950148037219800,21.4602197265625,9.386682510375977,2.5300021171569824,-1.288281798362732
1770950148056188400,21.4791884765625,9.41356086730957,2.422898530960083,-1.2980090379714966
1770950148075157200,21.4981572265625,9.428925514221191,2.3291711807250977,-1.3567301034927368
1770950148094125800,21.517125732421874,9.429404258728027,2.263056993484497,-1.461263656616211
1770950148113094400,21.536094482421873,9.422969818115234,2.221024751663208,-1.5636718273162842
1770950148132063000,21.55506298828125,9.419066429138184,2.1860415935516357,-1.6348727941513062
1770950148151031800,21.57403173828125,9.418095588684082,2.1494102478027344,-1.6881641149520874
1770950148170000400,21.59300048828125,9.414033889770508,2.130289316177368,-1.7344225645065308
1770950148188969000,21.611968994140625,9.407360076904297,2.1481940746307373,-1.7484936714172363
1770950148207937500,21.6309375,9.400435447692871,2.2047641277313232,-1.714996576309204
1770950148226906000,21.649906005859375,9.387539863586426,2.290743827819824,-1.6724220514297485
1770950148245875000,21.668875,9.364095687866211,2.397458553314209,-1.6541718244552612
1770950148264843300,21.68784326171875,9.340191841125488,2.494608163833618,-1.6456375122070312
1770950148283812600,21.7068125,9.324516296386719,2.55448579788208,-1.6426713466644287
1770950148302780700,21.72578076171875,9.31815242767334,2.5812838077545166,-1.6368861198425293
1770950148321749200,21.744749267578126,9.313360214233398,2.6129350662231445,-1.6137816905975342
1770950148340718000,21.763718017578125,9.30307674407959,2.678037166595459,-1.5656577348709106
1770950148359686400,21.782686279296875,9.291232109069824,2.7671990394592285,-1.4785139560699463
1770950148378655200,21.8016552734375,9.282238960266113,2.8410604000091553,-1.3924065828323364
1770950148397623800,21.820623779296874,9.280019760131836,2.866194009780884,-1.355193853378296
1770950148416592400,21.83959228515625,9.280471801757812,2.8701891899108887,-1.3435962200164795
1770950148435561000,21.85856103515625,9.273810386657715,2.8929600715637207,-1.3407479524612427
1770950148454529500,21.877529541015626,9.259169578552246,2.9543421268463135,-1.3076740503311157
1770950148473498400,21.896498291015625,9.232499122619629,3.0586395263671875,-1.2554117441177368
1770950148492466700,21.915466796875,9.189218521118164,3.197904109954834,-1.2255773544311523
1770950148511435500,21.934435546875,9.136475563049316,3.3441519737243652,-1.2295767068862915
1770950148530404000,21.953404052734374,9.08473014831543,3.4796998500823975,-1.2368285655975342
1770950148549372700,21.97237255859375,9.034769058227539,3.6056888103485107,-1.2419137954711914
1770950148568341200,21.99134130859375,8.986949920654297,3.723780870437622,-1.2403888702392578
1770950148587309800,22.010309814453127,8.94332218170166,3.833153247833252,-1.222415804862976
1770950148606278700,22.029278564453126,8.90278434753418,3.933769702911377,-1.1984423398971558
1770950148625247200,22.048247314453125,8.86375617980957,4.0236897468566895,-1.1891751289367676
1770950148644215800,22.0672158203125,8.823291778564453,4.102261543273926,-1.2212151288986206
1770950148663184400,22.086184326171875,8.78171443939209,4.169072151184082,-1.2925611734390259
1770950148682153000,22.105153076171874,8.750718116760254,4.20968770980835,-1.3688873052597046
1770950148701121500,22.12412158203125,8.744324684143066,4.211682319641113,-1.4031776189804077
1770950148720090000,22.143090087890624,8.772226333618164,4.16489839553833,-1.3682332038879395
1770950148739058700,22.16205859375,8.829532623291016,4.066047191619873,-1.2949856519699097
1770950148758027500,22.181027587890625,8.892681121826172,3.93717622756958,-1.2606562376022339
1770950148776996000,22.19999609375,8.941327095031738,3.8189358711242676,-1.2801517248153687
1770950148795964700,22.218964599609375,8.963292121887207,3.762493133544922,-1.2936022281646729
1770950148814933200,22.237933349609374,8.963286399841309,3.7811522483825684,-1.2380528450012207
1770950148833901800,22.25690185546875,8.956171035766602,3.837252378463745,-1.1103482246398926
1770950148852870400,22.275870361328124,8.959430694580078,3.8687572479248047,-0.9652493000030518
1770950148871839000,22.2948388671875,8.983620643615723,3.8383190631866455,-0.8557236194610596
1770950148890807600,22.3138076171875,9.027057647705078,3.7483441829681396,-0.7953120470046997
1770950148909776100,22.332776123046877,9.078474998474121,3.626357316970825,-0.7753836512565613
1770950148928745000,22.351744873046876,9.12586498260498,3.502929210662842,-0.7864153385162354
1770950148947713300,22.37071337890625,9.16146469116211,3.4025259017944336,-0.8128728270530701
1770950148966682000,22.38968212890625,9.18199348449707,3.3397774696350098,-0.8409971594810486
1770950148985650700,22.408650634765625,9.189911842346191,3.31467866897583,-0.8537038564682007
1770950149004619300,22.427619384765624,9.19092845916748,3.315915107727051,-0.837815523147583
1770950149023587800,22.446587890625,9.190573692321777,3.3277242183685303,-0.79372239112854
1770950149042556400,22.465556396484374,9.19189739227295,3.336437463760376,-0.739996075630188
1770950149061525000,22.48452490234375,9.192816734313965,3.3415536880493164,-0.7046446204185486
1770950149080493600,22.50349365234375,9.19412899017334,3.3404734134674072,-0.6925275921821594
1770950149099462100,22.522462158203126,9.196481704711914,3.3314292430877686,-0.7047677040100098
1770950149118430700,22.5414306640625,9.204626083374023,3.3028979301452637,-0.7321998476982117
1770950149137399300,22.5603994140625,9.225249290466309,3.237302541732788,-0.7648776769638062
1770950149156368000,22.579367919921875,9.252896308898926,3.141843795776367,-0.8265120983123779
1770950149175336400,22.59833642578125,9.279948234558105,3.0361506938934326,-0.9136471152305603
1770950149194305000,22.617304931640625,9.307696342468262,2.9240336418151855,-0.9935884475708008
1770950149213273600,22.636273681640624,9.339625358581543,2.7990269660949707,-1.052249789237976
1770950149232242200,22.6552421875,9.372411727905273,2.6629393100738525,-1.1122218370437622
1770950149251210800,22.674210693359374,9.396862983703613,2.534639596939087,-1.2020620107650757
1770950149270179300,22.693179443359377,9.411637306213379,2.4259438514709473,-1.3062422275543213
1770950149289148000,22.71214794921875,9.417977333068848,2.343214750289917,-1.4076329469680786
1770950149308116500,22.731116455078126,9.419729232788086,2.2879106998443604,-1.4847787618637085
1770950149327085000,22.7500849609375,9.419474601745605,2.2713310718536377,-1.5116026401519775
1770950149346053600,22.7690537109375,9.412989616394043,2.3139820098876953,-1.4871141910552979
1770950149365022200,22.788022216796875,9.398051261901855,2.4072866439819336,-1.4324687719345093
1770950149383990800,22.80699072265625,9.377264976501465,2.5149335861206055,-1.382895588874817
1770950149402959400,22.82595947265625,9.355669975280762,2.605466842651367,-1.3613865375518799
1770950149421928000,22.844927978515624,9.337113380432129,2.6661179065704346,-1.371323585510254
1770950149440896500,22.863896484375,9.321772575378418,2.704718828201294,-1.3998011350631714
1770950149459865000,22.882864990234374,9.307611465454102,2.741544723510742,-1.4222149848937988
1770950149478833700,22.901833740234373,9.292027473449707,2.7950148582458496,-1.4200350046157837
1770950149497802200,22.92080224609375,9.27072811126709,2.8789567947387695,-1.3912544250488281
1770950149516770800,22.939770751953127,9.241501808166504,2.9935340881347656,-1.3430498838424683
1770950149535739400,22.958739501953126,9.207025527954102,3.1223793029785156,-1.2852298021316528
1770950149554708000,22.9777080078125,9.174630165100098,3.240164041519165,-1.2238832712173462
1770950149573676500,22.996676513671876,9.150433540344238,3.3282275199890137,-1.1674140691757202
1770950149592645000,23.01564501953125,9.133243560791016,3.387272596359253,-1.1316519975662231
1770950149611613700,23.03461376953125,9.119384765625,3.4278957843780518,-1.1210397481918335
1770950149630582300,23.053582275390625,9.104637145996094,3.4600188732147217,-1.1420317888259888
1770950149649550800,23.07255078125,9.088530540466309,3.484797716140747,-1.1938198804855347
1770950149668519400,23.09151953125,9.072569847106934,3.500211715698242,-1.267821192741394
1770950149687488000,23.110488037109373,9.057948112487793,3.506399631500244,-1.3524564504623413
1770950149706456600,23.12945654296875,9.04617977142334,3.503995180130005,-1.4349361658096313
1770950149725425200,23.148425048828123,9.032520294189453,3.501363515853882,-1.5246028900146484
1770950149744393500,23.1673935546875,9.018900871276855,3.4987831115722656,-1.608824610710144
1770950149763362000,23.186362060546877,9.015981674194336,3.475738525390625,-1.6738262176513672
1770950149782330600,23.20533056640625,9.015544891357422,3.44026780128479,-1.7478255033493042
1770950149801299200,23.22429931640625,8.99880313873291,3.433549165725708,-1.8446338176727295
1770950149820267800,23.243267822265626,8.962531089782715,3.4885823726654053,-1.9165663719177246
1770950149839236400,23.262236328125,8.919748306274414,3.600477695465088,-1.9091989994049072
1770950149858205000,23.281204833984376,8.89061450958252,3.7266323566436768,-1.7998889684677124
1770950149877173500,23.300173583984375,8.882193565368652,3.8186166286468506,-1.6417019367218018
1770950149896142000,23.31914208984375,8.886991500854492,3.8601276874542236,-1.5136616230010986
1770950149915110700,23.338110595703125,8.893080711364746,3.8696463108062744,-1.4523524045944214
1770950149934079200,23.357079345703124,8.893767356872559,3.8707058429718018,-1.4453142881393433
1770950149953047600,23.376047607421874,8.890857696533203,3.8739304542541504,-1.4545420408248901
1770950149972016000,23.39501611328125,8.886319160461426,3.8798646926879883,-1.4664138555526733
1770950149990984700,23.413984619140624,8.880389213562012,3.8897805213928223,-1.4760370254516602
1770950150009953300,23.432953369140623,8.872515678405762,3.9113380908966064,-1.4663851261138916
1770950150028921900,23.451921875,8.86585807800293,3.9403610229492188,-1.4284659624099731
1770950150047890400,23.470890380859377,8.86863899230957,3.9589717388153076,-1.358004093170166
1770950150066859000,23.48985888671875,8.883041381835938,3.956109046936035,-1.2693183422088623
1770950150085827300,23.508827392578127,8.900978088378906,3.943106174468994,-1.1810535192489624
1770950150104796000,23.5277958984375,8.919711112976074,3.9266738891601562,-1.0910381078720093
1770950150123764500,23.546764404296876,8.93538761138916,3.9092888832092285,-1.0230823755264282
1770950150142733000,23.565733154296876,8.944381713867188,3.8968019485473633,-0.991636335849762
1770950150161701400,23.584701416015626,8.944657325744629,3.893233060836792,-1.0031005144119263
1770950150180670000,23.603669921875,8.942630767822266,3.8893930912017822,-1.0355488061904907
1770950150199638500,23.622638427734376,8.939064025878906,3.88582706451416,-1.0788297653198242
1770950150218607000,23.641607177734375,8.939681053161621,3.87056827545166,-1.1274762153625488
1770950150237575700,23.66057568359375,8.952323913574219,3.825345754623413,-1.1802557706832886
1770950150256544300,23.679544189453125,8.97245979309082,3.7612972259521484,-1.2320656776428223
1770950150275512800,23.698512939453124,8.987859725952148,3.7024435997009277,-1.296405553817749
1770950150294481200,23.717481201171875,8.994096755981445,3.6569812297821045,-1.379528284072876
1770950150313449700,23.73644970703125,8.995589256286621,3.6155266761779785,-1.475710153579712
1770950150332418300,23.755418212890625,8.985923767089844,3.5941946506500244,-1.5828214883804321
1770950150351387000,23.774386962890624,8.96319580078125,3.618231773376465,-1.655266284942627
1770950150370355500,23.79335546875,8.941319465637207,3.6783971786499023,-1.6409111022949219
1770950150389323800,23.81232373046875,8.934723854064941,3.73640775680542,-1.5428416728973389
1770950150408292400,23.831292236328125,8.942688941955566,3.7679357528686523,-1.4146945476531982
1770950150427261000,23.850260986328124,8.949951171875,3.7815027236938477,-1.330039381980896
1770950150446229500,23.8692294921875,8.947770118713379,3.788266658782959,-1.3254601955413818
1770950150465197800,23.88819775390625,8.938312530517578,3.7905898094177246,-1.3814419507980347
1770950150484166400,23.90716650390625,8.925811767578125,3.793907403945923,-1.4513883590698242
1770950150503135000,23.926135009765623,8.91353988647461,3.806184768676758,-1.4940370321273804
1770950150522103600,23.945103515625,8.901989936828613,3.8314545154571533,-1.498310923576355
1770950150541072000,23.96407177734375,8.890630722045898,3.8660314083099365,-1.4767800569534302
1770950150560040400,23.98304052734375,8.87857437133789,3.904604434967041,-1.4475412368774414
1770950150579009000,24.002009033203127,8.866415023803711,3.9414961338043213,-1.4218591451644897
1770950150597977300,24.020977294921874,8.852522850036621,3.9765610694885254,-1.4107400178909302
1770950150616946000,24.03994580078125,8.836119651794434,4.008125305175781,-1.4241876602172852
1770950150635914500,24.05891455078125,8.824159622192383,4.019931316375732,-1.4645010232925415
1770950150654883000,24.077883056640626,8.817337036132812,4.008157253265381,-1.5361067056655884
1770950150673851400,24.096851318359374,8.809359550476074,3.9886929988861084,-1.6296885013580322
1770950150692820000,24.115820068359376,8.796699523925781,3.970431089401245,-1.7390047311782837
1770950150711788500,24.13478857421875,8.77879810333252,3.954648733139038,-1.8611412048339844
1770950150730757000,24.153757080078126,8.763002395629883,3.938473701477051,-1.9668759107589722
1770950150749725400,24.172725341796873,8.743912696838379,3.937093496322632,-2.0527231693267822
1770950150768694000,24.191694091796876,8.722655296325684,3.9566128253936768,-2.1049721240997314
1770950150787662300,24.210662353515627,8.707551956176758,3.9777350425720215,-2.127566337585449
1770950150806631000,24.229630859375,8.688831329345703,3.993844985961914,-2.1734321117401123
1770950150825599500,24.248599609375,8.650160789489746,4.02496337890625,-2.2682111263275146
1770950150844568000,24.267568115234376,8.587970733642578,4.098772048950195,-2.3700661659240723
1770950150863536400,24.286536376953126,8.526843070983887,4.206974506378174,-2.400977611541748
1770950150882505000,24.3055048828125,8.499439239501953,4.311469554901123,-2.3110928535461426
1770950150901473500,24.3244736328125,8.517132759094238,4.376039981842041,-2.1163902282714844
1770950150920441900,24.34344189453125,8.560895919799805,4.3872761726379395,-1.9061107635498047
1770950150939410400,24.362410400390626,8.6055908203125,4.363161087036133,-1.7541451454162598
1770950150958379000,24.38137890625,8.636777877807617,4.330626010894775,-1.6799180507659912
1770950150977347300,24.400347412109376,8.653569221496582,4.300379753112793,-1.6711870431900024
1770950150996316000,24.41931591796875,8.663948059082031,4.269604206085205,-1.6961328983306885
1770950151015284200,24.4382841796875,8.670614242553711,4.243995189666748,-1.7260764837265015
1770950151034252800,24.457252685546877,8.669669151306152,4.236710071563721,-1.7485754489898682
1770950151053221400,24.476221435546876,8.661702156066895,4.254677772521973,-1.7444239854812622
1770950151072190000,24.49518994140625,8.649787902832031,4.296106338500977,-1.701479196548462
1770950151091158300,24.514158203125,8.637331008911133,4.348971843719482,-1.6289047002792358
1770950151110126600,24.533126708984376,8.622995376586914,4.407862186431885,-1.5443700551986694
