time,seconds_elapsed,z,y,x
1770950126763427000,0.186427001953125,-0.27030766010284424,0.7648026943206787,-0.5978838801383972
1770950126782396700,0.205396728515625,-0.18356487154960632,0.6102539300918579,-0.42623090744018555
1770950126810851000,0.23385107421875,0.2831358313560486,0.23335035145282745,-0.42623090744018555
1770950126829820400,0.2528203125,0.6777544617652893,0.07513637095689774,-0.4488328993320465
1770950126848790000,0.2717900390625,0.7357866168022156,-0.17531819641590118,-0.9454659819602966
1770950126867759400,0.29075927734375,0.5342012643814087,-0.2577849328517914,-1.6119194030761719
1770950126886729000,0.30972900390625,0.46944957971572876,0.053756099194288254,-1.8739804029464722
1770950126905697500,0.328697509765625,0.5342012643814087,0.36285367608070374,-1.661399483680725
1770950126924668000,0.34766796875,0.5354229807853699,0.45387253165245056,-1.0328196287155151
1770950126943637500,0.366637451171875,0.4615083336830139,0.3536907136440277,-0.2643517255783081
1770950126962607000,0.385607177734375,0.43951719999313354,-0.01954767294228077,0.35445427894592285
1770950126981576400,0.404576416015625,0.4932733178138733,-0.2864955961704254,0.81810063123703
1770950127000546000,0.423546142578125,0.5842921733856201,-0.4269944727420807,1.0716094970703125
1770950127019515600,0.442515625,0.6087267398834229,-0.5149590373039246,1.03129243850708
1770950127038485000,0.461485107421875,0.4932733178138733,-0.5406153202056885,0.8028290271759033
1770950127057454600,0.48045458984375,0.2971857190132141,-0.4923570156097412,0.6348412036895752
1770950127076424200,0.499424072265625,0.05345066636800766,-0.4917461574077606,0.5242747068405151
1770950127095393800,0.518393798828125,-0.2263254076242447,-0.6249146461486816,0.3782780170440674
1770950127114363100,0.537363037109375,-0.383928507566452,-0.7043271064758301,0.3098611533641815
1770950127133332700,0.556332763671875,-0.5751292109489441,-0.7189878225326538,0.08078686892986298
1770950127152302300,0.57530224609375,-1.0522146224975586,-0.7232639193534851,-0.4237874448299408
1770950127171271700,0.594271728515625,-1.6239839792251587,-0.7177661061286926,-0.8355103135108948
1770950127190241300,0.6132412109375,-1.8029674291610718,-0.6157516837120056,-0.864220917224884
1770950127209211000,0.6322109375,-1.3674207925796509,-0.5137372612953186,-0.5636754631996155
1770950127228180200,0.65118017578125,-0.5403099060058594,-0.44837474822998047,-0.15500694513320923
1770950127247149800,0.67014990234375,0.2874118685722351,-0.2632827162742615,0.15775582194328308
1770950127266119400,0.689119384765625,0.5946768522262573,-0.20769402384757996,0.21212279796600342
1770950127285089000,0.708089111328125,0.4523453712463379,-0.20891575515270233,0.0025961752980947495
1770950127304058400,0.727058349609375,-0.0015271619195118546,-0.17715078592300415,-0.3400989770889282
1770950127323028000,0.746028076171875,-0.4883863925933838,-0.11362084746360779,-0.5264127254486084
1770950127341997600,0.76499755859375,-0.859792172908783,-0.09162971377372742,-0.4396699368953705
1770950127360967000,0.783966796875,-0.9465349912643433,-0.09468404203653336,-0.13301581144332886
1770950127379936500,0.8029365234375,-0.8805615901947021,-0.06719512492418289,0.25671592354774475
1770950127398906000,0.821906005859375,-0.7266236543655396,-0.03848448023200035,0.6287325620651245
1770950127417875500,0.84087548828125,-0.6178897023200989,-0.07574722915887833,0.8064942359924316
1770950127436845000,0.859844970703125,-0.5415316224098206,-0.16798780858516693,0.8083268404006958
1770950127455814700,0.878814697265625,-0.5036579966545105,-0.22235478460788727,0.7087558507919312
1770950127474784300,0.8977841796875,-0.4761691093444824,-0.20769402384757996,0.5395463109016418
1770950127493753600,0.916753662109375,-0.47922343015670776,-0.16615521907806396,0.33918267488479614
1770950127512723200,0.93572314453125,-0.5250383019447327,-0.16004657745361328,0.18341214954853058
1770950127531692800,0.95469287109375,-0.5983420610427856,-0.050090912729501724,0.17119485139846802
1770950127550662400,0.973662353515625,-0.6246092319488525,0.18081597983837128,0.28664830327033997
1770950127569632000,0.992632080078125,-0.5305360555648804,0.31581708788871765,0.34468045830726624
1770950127588601300,1.011601318359375,-0.3448331654071808,0.2675587832927704,0.25121814012527466
1770950127607571000,1.030571044921875,-0.17134757339954376,0.15515965223312378,0.058795735239982605
1770950127626540500,1.04954052734375,0.07910698652267456,0.18814635276794434,-0.037720900028944016
1770950127645510100,1.06851025390625,0.3191768527030945,0.04214967042207718,-0.037720900028944016
1770950127683449000,1.106448974609375,0.1340848207473755,-0.2877173125743866,-0.1366809904575348
1770950127702418700,1.125418701171875,0.02779434807598591,-0.22357651591300964,-0.02367101050913334
1770950127721388300,1.14438818359375,0.323452889919281,-0.19730933010578156,0.2842048406600952
1770950127740357600,1.163357666015625,0.6966912746429443,-0.3750709891319275,0.48334676027297974
1770950127759327200,1.1823271484375,0.7559451460838318,-0.5381718873977661,0.4137081801891327
1770950127778296800,1.201296875,0.4572322964668274,-0.5473348498344421,0.08261945843696594
1770950127797266400,1.220266357421875,0.038789913058280945,-0.3597993552684784,-0.2863428592681885
1770950127816235800,1.23923583984375,-0.19944734871387482,-0.07513637095689774,-0.45066550374031067
1770950127835205400,1.258205322265625,-0.2000582218170166,0.13439024984836578,-0.3474293351173401
1770950127854175000,1.277175048828125,-0.08277218043804169,0.15638138353824615,-0.09697478264570236
1770950127873144600,1.29614453125,-0.0009162971982732415,0.06841685622930527,0.08872810751199722
1770950127892114200,1.3151142578125,-0.000305432389723137,0.01588248461484909,0.1510363221168518
1770950127911083500,1.33408349609375,-0.03023780696094036,-0.046425722539424896,0.09972367435693741
1770950127930053000,1.35305322265625,0.04306596517562866,-0.1698204129934311,-0.010842849500477314
1770950127949022700,1.372022705078125,0.2257145345211029,-0.26878049969673157,-0.09636391699314117
1770950127967992300,1.390992431640625,0.33139413595199585,-0.2883281707763672,-0.11591159552335739
1770950127986962000,1.4099619140625,0.28008151054382324,-0.21930044889450073,-0.11896591633558273
1770950128005931500,1.428931640625,0.10842850059270859,-0.11362084746360779,-0.12018764764070511
1770950128024900900,1.44790087890625,-0.06261363625526428,-0.043371398001909256,-0.11346813291311264
1770950128043870500,1.466870361328125,-0.15546508133411407,-0.07147117704153061,-0.10735948383808136
1770950128062840000,1.485840087890625,-0.16340632736682892,-0.16310089826583862,-0.09453132748603821
1770950128081809400,1.504809326171875,-0.15302163362503052,-0.19669845700263977,-0.11285726726055145
1770950128100779000,1.523779052734375,-0.1334739476442337,-0.20708316564559937,-0.19165882468223572
1770950128119748600,1.54274853515625,-0.08155044913291931,-0.14233149588108063,-0.22220206260681152
1770950128138718200,1.56171826171875,0.0015271619195118546,-0.04276053607463837,-0.16355904936790466
1770950128157687800,1.580687744140625,0.028405211865901947,-0.010995565913617611,-0.04505127668380737
1770950128176657400,1.599657470703125,-0.1695149689912796,-0.030543239787220955,-0.03894263133406639
1770950128195627000,1.618626953125,-0.5800161361694336,-0.1698204129934311,-0.22464552521705627
1770950128214596400,1.637596435546875,-0.8732311725616455,-0.31154105067253113,-0.3883572816848755
1770950128233566000,1.65656591796875,-0.8200859427452087,-0.22418737411499023,-0.2735147178173065
1770950128252535600,1.67553564453125,-0.5287034511566162,0.09101885557174683,0.04108065739274025
1770950128271505200,1.694505126953125,-0.28985533118247986,0.2620609998703003,0.20723587274551392
1770950128290474800,1.713474853515625,-0.2367101013660431,0.1545487940311432,0.1302669197320938
1770950128309444000,1.732444091796875,-0.29901832342147827,-0.015271619893610477,0.06246092543005943
1770950128328413700,1.75141357421875,-0.38698282837867737,-0.15821397304534912,0.1253799945116043
1770950128347383300,1.77038330078125,-0.48594292998313904,-0.1698204129934311,0.23594652116298676
1770950128366353000,1.789352783203125,-0.5299251675605774,-0.06352993845939636,0.35506516695022583
1770950128385322500,1.808322509765625,-0.4572322964668274,0.004886918235570192,0.42959064245224
1770950128404292000,1.8272919921875,-0.35643959045410156,-0.04276053607463837,0.471129447221756
1770950128423261700,1.84626171875,-0.3442223072052002,-0.08124501258134842,0.48823368549346924
1770950128442231000,1.86523095703125,-0.4535670876502991,-0.06108647957444191,0.4650208055973053
1770950128461200600,1.88420068359375,-0.591622531414032,-0.043371398001909256,0.42531460523605347
1770950128480170200,1.903170166015625,-0.6386591196060181,-0.020158538594841957,0.3831649422645569
1770950128499139800,1.922139892578125,-0.601396381855011,0.017715077847242355,0.3422369956970215
1770950128518109400,1.941109375,-0.5201513767242432,0.021991131827235222,0.3507890999317169
1770950128537078800,1.960078857421875,-0.4358520209789276,-0.01954767294228077,0.40515607595443726
1770950128556048400,1.97904833984375,-0.3992001414299011,-0.0769689604640007,0.41004297137260437
1770950128575018000,1.99801806640625,-0.4046979248523712,-0.1081230640411377,0.34895649552345276
1770950128593987600,2.016987548828125,-0.39309149980545044,-0.056199558079242706,0.26282456517219543
1770950128612957200,2.035957275390625,-0.3533852696418762,0.014660755172371864,0.16325360536575317
1770950128631926800,2.0549267578125,-0.31551164388656616,0.008552107028663158,0.05329795181751251
1770950128650896400,2.073896484375,-0.28069236874580383,-0.07391463965177536,-0.02611446939408779
1770950128669866000,2.092865966796875,-0.16340632736682892,-0.0030543238390237093,0.04108065739274025
1770950128688835600,2.111835693359375,-0.0821613147854805,0.09590577334165573,0.08628465235233307
1770950128707805000,2.130804931640625,-0.10537417232990265,0.11728604137897491,-0.0902552679181099
1770950128726774500,2.1497744140625,-0.2684750556945801,0.03237583488225937,-0.45738500356674194
1770950128745744100,2.168744140625,-0.3381136655807495,0.06230820715427399,-0.7383828163146973
1770950128764713700,2.187713623046875,-0.061391908675432205,0.20891575515270233,-0.6522508859634399
1770950128783683300,2.206683349609375,0.44990190863609314,0.09712749719619751,-0.31444263458251953
1770950128802653000,2.22565283203125,0.796262264251709,-0.18142683804035187,-0.0102319847792387
1770950128821622300,2.244622314453125,0.7742711305618286,-0.3127627670764923,0.0154243353754282
1770950128840592000,2.263591796875,0.5195404887199402,-0.16737695038318634,-0.3156643807888031
1770950128859561500,2.2825615234375,0.20861032605171204,0.06963858753442764,-0.7939714789390564
1770950128878531000,2.301531005859375,0.02412915788590908,0.3139844834804535,-1.068860650062561
1770950128897500700,2.320500732421875,0.04001164436340332,0.6340776681900024,-1.0053306818008423
1770950128916470300,2.33947021484375,0.15179990231990814,0.8295543789863586,-0.7365502119064331
1770950128935439600,2.358439697265625,0.2666424810886383,0.758694052696228,-0.4402807950973511
1770950128954409200,2.3774091796875,0.3124573230743408,0.3842339515686035,-0.26679518818855286
1770950128973378800,2.39637890625,0.34238970279693604,-0.01282816007733345,-0.16966769099235535
1770950128992348400,2.415348388671875,0.3943132162094116,-0.15088360011577606,-0.04627300798892975
1770950129011318000,2.434318115234375,0.4248564541339874,-0.09285144507884979,0.0691804364323616
1770950129030287600,2.45328759765625,0.3912588953971863,0.1130099818110466,0.11682789027690887
1770950129049257200,2.47225732421875,0.29596397280693054,0.268169641494751,0.08384118974208832
1770950129068226800,2.491226806640625,0.20799945294857025,0.39217519760131836,0.03436114266514778
1770950129087196400,2.510196533203125,0.20922118425369263,0.36835145950317383,-0.013897174037992954
1770950129106165800,2.529165771484375,0.31551164388656616,0.205861434340477,-0.007788525894284248
1770950129125135400,2.54813525390625,0.4303542375564575,0.09834922850131989,0.049632761627435684
1770950129144105000,2.56710498046875,0.5128209590911865,0.09834922850131989,0.11255183815956116
1770950129163074600,2.586074462890625,0.5427533388137817,0.1282816082239151,0.12293653935194016
1770950129182044200,2.605044189453125,0.5195404887199402,0.09590577334165573,0.06490438431501389
1770950129201013800,2.624013671875,0.48472121357917786,-0.004886918235570192,0.022754713892936707
1770950129219983400,2.6429833984375,0.4712821841239929,0.0030543238390237093,0.10399972647428513
1770950129238953000,2.661952880859375,0.41386088728904724,0.11239911615848541,0.2182314395904541
1770950129257922300,2.68092236328125,0.16157373785972595,0.28466299176216125,0.23777911067008972
1770950129276892000,2.699891845703125,-0.30451610684394836,0.42271843552589417,0.10827577859163284
1770950129295861500,2.718861572265625,-0.7455604672431946,0.3811796307563782,-0.0639880821108818
1770950129314831000,2.7378310546875,-0.7980948090553284,0.3451386094093323,-0.03222311660647392
1770950129333800700,2.75680078125,-0.4871646761894226,0.31093016266822815,0.17791436612606049
1770950129352770300,2.775770263671875,-0.17318016290664673,0.11606431007385254,0.29214608669281006
1770950129371739600,2.79473974609375,-0.16096286475658417,-0.2419024556875229,0.09789107739925385
1770950129390709200,2.813709228515625,-0.31184646487236023,-0.5015199780464172,-0.22464552521705627
1770950129409678800,2.832678955078125,-0.4248564541339874,-0.5503891706466675,-0.4286743700504303
1770950129428648400,2.8516484375,-0.4834994673728943,-0.4471530318260193,-0.5404626131057739
1770950129447618000,2.8706181640625,-0.5378664135932922,-0.33597561717033386,-0.5196931958198547
1770950129466587600,2.889587646484375,-0.6093376278877258,-0.24801109731197357,-0.29367324709892273
1770950129485557200,2.90855712890625,-0.6484329700469971,-0.2254091054201126,0.0025961752980947495
1770950129504526600,2.927526611328125,-0.6429351568222046,-0.3042106628417969,0.20723587274551392
1770950129523496200,2.94649609375,-0.6056724190711975,-0.3652971386909485,0.26282456517219543
1770950129542465800,2.9654658203125,-0.562911868095398,-0.4043924808502197,0.19868376851081848
1770950129561435400,2.984435302734375,-0.5232056975364685,-0.3903425931930542,0.10949750989675522
1770950129580405000,3.003405029296875,-0.47372564673423767,-0.40378162264823914,0.04535670951008797
1770950129599374600,3.02237451171875,-0.4535670876502991,-0.38301220536231995,0.0154243353754282
1770950129618344200,3.04134423828125,-0.4456258714199066,-0.21502439677715302,0.0691804364323616
1770950129637313800,3.060313720703125,-0.4419606626033783,0,0.13881902396678925
1770950129656283100,3.079283203125,-0.41813695430755615,0.12400554865598679,0.1363755613565445
1770950129675252700,3.098252685546875,-0.42852163314819336,0.10201441496610641,0.009315688163042068
1770950129694222300,3.117222412109375,-0.4199695289134979,0.0818558782339096,-0.09636391699314117
1770950129713192000,3.13619189453125,-0.30451610684394836,0.006108647678047419,-0.10247256606817245
1770950129732161300,3.155161376953125,0.04001164436340332,0.06780599057674408,0.10399972647428513
1770950129751131000,3.174130859375,0.4272999167442322,0.4013381600379944,0.39477136731147766
1770950129770100500,3.1931005859375,0.5451968312263489,0.3903425931930542,0.37033677101135254
1770950129789070000,3.212070068359375,0.3698786199092865,0.31031930446624756,0.14798198640346527
1770950129808039700,3.231039794921875,0.09376774728298187,0.22724169492721558,0.020922118797898293
1770950129827009300,3.25000927734375,-0.0021380267571657896,-0.021380268037319183,0.058795735239982605
1770950129845979000,3.268978759765625,0.1078176349401474,-0.30970844626426697,0.162031888961792
1770950129864948500,3.287948486328125,0.26969680190086365,-0.5192350745201111,0.22067490220069885
1770950129883917800,3.306917724609375,0.374765545129776,-0.5864301919937134,0.1815795600414276
1770950129902887400,3.325887451171875,0.34788748621940613,-0.4477638900279999,0.07712167501449585
1770950129921857000,3.34485693359375,0.18845178186893463,-0.16554436087608337,-0.10613775253295898
1770950129940826600,3.36382666015625,0.035124726593494415,0.17287473380565643,-0.28267768025398254
1770950129959796000,3.3827958984375,-0.023518294095993042,0.38667741417884827,-0.40485063195228577
1770950129978765600,3.401765625,0.02779434807598591,0.4416552484035492,-0.42684176564216614
1770950129997735200,3.420735107421875,0.16096286475658417,0.3689623177051544,-0.29245150089263916
1770950130016704800,3.439704833984375,0.34055712819099426,0.14233149588108063,-0.04932733252644539
1770950130035674400,3.45867431640625,0.4828886091709137,-0.143553227186203,0.1931859850883484
1770950130054644000,3.47764404296875,0.5244274139404297,-0.35796675086021423,0.3611738085746765
1770950130073613300,3.49661328125,0.4535670876502991,-0.45875945687294006,0.3874409794807434
1770950130092583000,3.5155830078125,0.25503605604171753,-0.4886918365955353,0.24510949850082397
1770950130111552500,3.534552490234375,-0.014966187067329884,-0.47464191913604736,0.06856957077980042
1770950130130522000,3.553522216796875,-0.2409861534833908,-0.35735589265823364,-0.00045814859913662076
1770950130149491700,3.57249169921875,-0.3643808364868164,-0.20647229254245758,0.04718930274248123
1770950130168461300,3.59146142578125,-0.3949240744113922,-0.16249002516269684,0.1314886510372162
1770950130187430700,3.6104306640625,-0.42791077494621277,-0.18264856934547424,0.17119485139846802
1770950130206400300,3.629400146484375,-0.4676169753074646,-0.15515965223312378,0.1718057245016098
1770950130225369900,3.648369873046875,-0.5018253922462463,-0.1081230640411377,0.17424917221069336
1770950130244339200,3.667339111328125,-0.4608974754810333,-0.09162971377372742,0.14920371770858765
1770950130263308800,3.686308837890625,-0.4175260663032532,-0.23518294095993042,0.049021899700164795
1770950130282278400,3.7052783203125,-0.5061014890670776,-0.3090975880622864,-0.11468986421823502
1770950130301248000,3.724248046875,-0.8170316219329834,-0.24495677649974823,-0.33948808908462524
1770950130320217600,3.743217529296875,-1.1114684343338013,-0.235793799161911,-0.5429060459136963
1770950130339187000,3.76218701171875,-0.999069333076477,-0.2516762912273407,-0.48853909969329834
1770950130358156500,3.781156494140625,-0.44440412521362305,-0.36712974309921265,-0.13851359486579895
1770950130377126100,3.800126220703125,0.2733619809150696,-0.27855435013771057,0.32330018281936646
1770950130396095700,3.819095703125,0.7724385261535645,-0.14538581669330597,0.4766272306442261
1770950130415065000,3.838065185546875,0.7907644510269165,0.08063415437936783,0.2750418782234192
1770950130434034700,3.85703466796875,0.48655378818511963,0.3530798554420471,-0.0792597085237503
1770950130453004300,3.87600439453125,0.015577051788568497,0.472198486328125,-0.3413206934928894
1770950130471974000,3.894973876953125,-0.40714138746261597,0.41783151030540466,-0.3529271185398102
1770950130490943200,3.913943115234375,-0.6557633280754089,0.24434591829776764,-0.15561780333518982
1770950130509912800,3.932912841796875,-0.6960803866386414,0.012217295356094837,0.0746782198548317
1770950130528882400,3.95188232421875,-0.581848680973053,-0.17165300250053406,0.22678354382514954
1770950130547852000,3.97085205078125,-0.42363473773002625,-0.23273947834968567,0.26282456517219543
1770950130566821400,3.9898212890625,-0.3179551064968109,-0.15210533142089844,0.23228132724761963
1770950130585791000,4.008791015625,-0.29535311460494995,0.021380268037319183,0.18890993297100067
1770950130604760600,4.027760498046875,-0.3503309488296509,0.17104214429855347,0.15347976982593536
1770950130623730000,4.04672998046875,-0.44929105043411255,0.26389357447624207,0.20173808932304382
1770950130642699500,4.065699462890625,-0.4944950342178345,0.32559093832969666,0.30314165353775024
1770950130661669000,4.084669189453125,-0.4046979248523712,0.3481929302215576,0.3770562708377838
1770950130680638500,4.103638427734375,-0.24770566821098328,0.35674503445625305,0.3672824501991272
1770950130699608000,4.122608154296875,-0.12370011955499649,0.34208428859710693,0.24266603589057922
1770950130718577700,4.14157763671875,-0.0009162971982732415,0.3591884970664978,0.12782345712184906
1770950130737547000,4.160547119140625,0.1029307171702385,0.2993237376213074,0.020311253145337105
1770950130756516600,4.1795166015625,0.24404047429561615,0.21502439677715302,-0.09453132748603821
1770950130775486200,4.198486328125,0.36682429909706116,0.039706211537122726,-0.20693044364452362
1770950130794455600,4.21745556640625,0.4016436040401459,-0.10018182545900345,-0.24602578580379486
1770950130813425200,4.236425048828125,0.23915356397628784,-0.2003636509180069,-0.18921536207199097
1770950130832394800,4.255394775390625,0.12614357471466064,-0.19853104650974274,0.049021899700164795
1770950130851364000,4.274364013671875,0.35094180703163147,0.08857539296150208,0.44608399271965027
1770950130870333700,4.293333740234375,0.7681624889373779,0.15515965223312378,0.560315728187561
1770950130889303300,4.31230322265625,0.9489784240722656,-0.15271618962287903,0.2383899837732315
1770950130908272600,4.331272705078125,0.7205150127410889,-0.4251618981361389,-0.24297146499156952
1770950130927242200,4.3502421875,0.36743515729904175,-0.30604326725006104,-0.5099193453788757
1770950130946211800,4.3692119140625,0.1853974610567093,0.12522727251052856,-0.45310893654823303
1770950130965181200,4.38818115234375,0.24220788478851318,0.4728093445301056,-0.26190826296806335
1770950130984150800,4.40715087890625,0.36682429909706116,0.554665207862854,-0.14217877388000488
1770950131003120000,4.4261201171875,0.4260781705379486,0.4734202027320862,-0.14828743040561676
1770950131022089700,4.44508984375,0.39248061180114746,0.30482152104377747,-0.23014330863952637
1770950131041059300,4.464059326171875,0.3442223072052002,0.1496618688106537,-0.2857320010662079
1770950131060028700,4.483028564453125,0.3228420317173004,-0.08429934084415436,-0.2900080680847168
1770950131078998300,4.501998291015625,0.35582873225212097,-0.27366742491722107,-0.22953243553638458
1770950131097967900,4.5209677734375,0.37232208251953125,-0.3335321843624115,-0.09147699922323227
1770950131116937200,4.539937255859375,0.3185659945011139,-0.29016077518463135,0.0435241162776947
1770950131135906800,4.55890673828125,0.189673513174057,-0.2516762912273407,0.06979130208492279
1770950131154876400,4.57787646484375,0.028405211865901947,-0.235793799161911,0.007483093533664942
1770950131173845800,4.596845703125,-0.09804379940032959,-0.15088360011577606,-0.016340631991624832
1770950131192815400,4.6158154296875,-0.16523891687393188,-0.020158538594841957,0.014813470654189587
1770950131211784700,4.63478466796875,-0.168904110789299,-0.006719512399286032,0.04413498193025589
1770950131230754300,4.65375439453125,-0.15546508133411407,-0.07330377399921417,0.0001527161948615685
1770950131249723600,4.6727236328125,-0.15546508133411407,-0.0360410213470459,-0.08353576064109802
1770950131268693200,4.691693359375,-0.21288637816905975,0.06719512492418289,-0.1922696828842163
1770950131287662800,4.710662841796875,-0.19944734871387482,0.12522727251052856,-0.2838993966579437
1770950131306632200,4.729632080078125,-0.07238747924566269,0.13011419773101807,-0.23625195026397705
1770950131325601800,4.748601806640625,0.028405211865901947,0.11362084746360779,-0.064598947763443
1770950131344571100,4.767571044921875,0.006414080038666725,0.12767073512077332,0.04780016839504242
1770950131363540700,4.786540771484375,-0.20433427393436432,0.07269290834665298,-0.005345067009329796
1770950131382510000,4.805510009765625,-0.30146175622940063,0.12278381735086441,-0.05604684352874756
1770950131401479700,4.824479736328125,-0.07360920310020447,0.1698204129934311,0.012370011769235134
1770950131420449000,4.843448974609375,0.35277441143989563,0.12400554865598679,0.08384118974208832
1770950131439418600,4.862418701171875,0.6258309483528137,-0.07452550530433655,-0.07803797721862793
1770950131458388000,4.881387939453125,0.5451968312263489,-0.2419024556875229,-0.46654796600341797
1770950131477357600,4.900357666015625,0.2611446976661682,-0.12034036219120026,-0.8306233882904053
1770950131496327000,4.919326904296875,0.005803215317428112,0.19181154668331146,-0.93813556432724
1770950131515296500,4.938296630859375,-0.060781046748161316,0.4068359434604645,-0.791528046131134
1770950131534265900,4.957265869140625,0.01435532234609127,0.3903425931930542,-0.4903717041015625
1770950131553235500,4.9762353515625,0.12064579129219055,0.1954767256975174,-0.145843967795372
1770950131572204800,4.995204833984375,0.19822561740875244,0.018325943499803543,0.13942988216876984
1770950131591174400,5.01417431640625,0.22388194501399994,-0.05742128938436508,0.26710063219070435
1770950131610143700,5.033143798828125,0.2409861534833908,-0.013439024798572063,0.2487746775150299
1770950131629113300,5.05211328125,0.26542073488235474,0.06780599057674408,0.1724165827035904
1770950131648082700,5.071082763671875,0.2605338394641876,0.1649334877729416,0.09911280870437622
1770950131667052000,5.090052001953125,0.20922118425369263,0.258395791053772,0.08078686892986298
1770950131686021600,5.109021728515625,0.12675444781780243,0.28038692474365234,0.141262486577034
1770950131704991000,5.127990966796875,0.05222893878817558,0.3390299379825592,0.22128576040267944
1770950131723960600,5.146960693359375,0.013133592903614044,0.3738492429256439,0.24633121490478516
1770950131742930000,5.165929931640625,-0.016187917441129684,0.27977606654167175,0.1510363221168518
1770950131761899500,5.1848994140625,-0.016187917441129684,0.12767073512077332,-0.03527744114398956
1770950131780868900,5.203868896484375,0.011911863461136818,0.06902772188186646,-0.18921536207199097
1770950131799838500,5.22283837890625,0.28435754776000977,0.37629270553588867,-0.16966769099235535
1770950131818807800,5.241807861328125,0.776714563369751,0.953559935092926,-0.07620538026094437
1770950131837777200,5.260777099609375,1.2104285955429077,1.173471212387085,-0.2539670467376709
1770950131856746800,5.279746826171875,1.1102467775344849,0.80389803647995,-0.6944005489349365
1770950131875716000,5.298716064453125,0.6258309483528137,0.3744601011276245,-0.8483384847640991
1770950131894685400,5.317685546875,0.4786125421524048,0.30482152104377747,-0.4427242577075958
1770950131913655000,5.336655029296875,0.8518509268760681,0.35613417625427246,0.2084576040506363
1770950131932624400,5.355624267578125,1.2525782585144043,0.08552107214927673,0.48762279748916626
1770950131951594000,5.374593994140625,1.2898409366607666,-0.15210533142089844,0.21517711877822876
1770950131970563300,5.393563232421875,1.0601558685302734,0.10384701192378998,-0.19165882468223572
1770950131989532700,5.41253271484375,0.7620537877082825,0.5387827157974243,-0.47754353284835815
1770950132008502300,5.431502197265625,0.5170970559120178,0.7794634699821472,-0.6327031850814819
1770950132027471600,5.4504716796875,0.4101957082748413,0.7965676784515381,-0.6339249014854431
1770950132046441000,5.46944091796875,0.45906487107276917,0.7373138070106506,-0.5490147471427917
1770950132065410600,5.48841064453125,0.620333194732666,0.6029235124588013,-0.3779725730419159
1770950132084380000,5.5073798828125,0.8109229803085327,0.4471530318260193,-0.20937390625476837
1770950132103349200,5.526349365234375,0.9330959320068359,0.2626718580722809,-0.16355904936790466
1770950132122318800,5.54531884765625,0.9569196701049805,0.020158538594841957,-0.19960007071495056
1770950132141288200,5.5642880859375,0.8665117025375366,-0.21502439677715302,-0.21120649576187134
1770950132160257500,5.583257568359375,0.6875283122062683,-0.4172206521034241,-0.16050471365451813
1770950132179227100,5.60222705078125,0.4364628791809082,-0.42271843552589417,-0.05971203371882439
1770950132198196500,5.621196533203125,0.22876885533332825,-0.28405213356018066,0.14859285950660706
1770950132217165800,5.640165771484375,0.12614357471466064,-0.012217295356094837,0.38011062145233154
1770950132236135200,5.65913525390625,0.10659590363502502,0.10079269111156464,0.39599308371543884
1770950132255104500,5.6781044921875,0.07849612087011337,0.043982263654470444,0.21578797698020935
1770950132274074000,5.69707421875,-0.01802051067352295,-0.12644900381565094,-0.002901607658714056
1770950132293043500,5.71604345703125,-0.20738859474658966,-0.2315177470445633,-0.14828743040561676
1770950132312013000,5.735012939453125,-0.3802633285522461,-0.12583814561367035,-0.17944152653217316
1770950132330982400,5.753982421875,-0.3222311735153198,0.043371398001909256,-0.07559451460838318
1770950132349951700,5.77295166015625,-0.21655155718326569,0.07635809481143951,0.07651081681251526
1770950132368921000,5.791921142578125,-0.2263254076242447,0.12034036219120026,0.2341139316558838
1770950132387890700,5.810890625,-0.44440412521362305,0.03848448023200035,0.18890993297100067
1770950132406860000,5.829860107421875,-0.6618719696998596,-0.14660754799842834,0.06490438431501389
1770950132425829400,5.848829345703125,-0.6319395899772644,-0.389120876789093,0.04535670951008797
1770950132444798700,5.867798828125,-0.38820457458496094,-0.6291907429695129,0.18829907476902008
1770950132463768000,5.88676806640625,-0.02718348242342472,-0.7079922556877136,0.32330018281936646
1770950132482737700,5.905737548828125,0.11331541836261749,-0.7086031436920166,0.2952004075050354
1770950132501707000,5.92470703125,-0.0821613147854805,-0.7165443897247314,0.18524473905563354
1770950132520676400,5.94367626953125,-0.42302384972572327,-0.6878337264060974,0.06123919412493706
1770950132539645700,5.962645751953125,-0.6563742160797119,-0.536339282989502,-0.04810560122132301
1770950132558615000,5.981614990234375,-0.7101303339004517,-0.34086254239082336,-0.1513417512178421
1770950132577584600,6.000584716796875,-0.6472112536430359,-0.16065743565559387,-0.19410228729248047
1770950132596554000,6.019553955078125,-0.5335903763771057,-0.0665842592716217,-0.0792597085237503
1770950132615523300,6.0385234375,-0.4248564541339874,-0.14477495849132538,0.14004075527191162
1770950132634492700,6.05749267578125,-0.3497200906276703,-0.3231474757194519,0.29153522849082947
1770950132653462000,6.0764619140625,-0.30451610684394836,-0.4196641147136688,0.3367392122745514
1770950132672431400,6.095431396484375,-0.29535311460494995,-0.39278605580329895,0.314748078584671
1770950132691400700,6.114400634765625,-0.3075704276561737,-0.22418737411499023,0.2897026240825653
1770950132710370000,6.1333701171875,-0.3454440236091614,0.009162971749901772,0.2945895493030548
1770950132729339600,6.152339599609375,-0.364991694688797,0.22418737411499023,0.3098611533641815
1770950132748308700,6.171308837890625,-0.3173442482948303,0.38179048895835876,0.31291547417640686
1770950132767278300,6.1902783203125,-0.19272783398628235,0.430659681558609,0.2805396616458893
1770950132786247700,6.20924755859375,-0.05283980444073677,0.4172206521034241,0.23044873774051666
1770950132805217000,6.228217041015625,0.06444623321294785,0.35246896743774414,0.11988221108913422
1770950132824186400,6.247186279296875,0.15302163362503052,0.24373504519462585,-0.07254019379615784
1770950132843155700,6.26615576171875,0.34055712819099426,0.2510654330253601,-0.09269873052835464
1770950132862125000,6.285125,0.5787943601608276,0.2767217457294464,0.1718057245016098
1770950132881094400,6.304094482421875,0.9318742156028748,0.6004800796508789,0.7185297012329102
1770950132900063700,6.323063720703125,1.2666281461715698,0.9089667797088623,1.0874919891357422
1770950132919033000,6.342033203125,1.1896591186523438,0.42088583111763,0.6226239204406738
1770950132938002400,6.36100244140625,0.6117810606956482,-0.27550002932548523,-0.1672242283821106
1770950132956972000,6.379971923828125,-0.016798781231045723,-0.287106454372406,-0.6101012229919434
1770950132975941000,6.398941162109375,-0.24220788478851318,0.2559523284435272,-0.6180424690246582
1770950132994910500,6.417910400390625,-0.03940077871084213,0.5943714380264282,-0.6168206930160522
1770950133013880000,6.436880126953125,0.21899501979351044,0.5558869242668152,-0.771980345249176
1770950133032849400,6.455849365234375,0.2868010103702545,0.6841685771942139,-0.856279730796814
1770950133051818800,6.47481884765625,0.23793183267116547,1.0097594261169434,-0.7108938694000244
1770950133070787800,6.493787841796875,0.2629773020744324,1.193018913269043,-0.4329504072666168
1770950133089757400,6.51275732421875,0.34666576981544495,1.0134246349334717,-0.1928805559873581
1770950133108726800,6.531726806640625,0.34055712819099426,0.6432406306266785,-0.060322895646095276
1770950133127696000,6.55069580078125,0.26480987668037415,0.36774060130119324,0.05146535858511925
1770950133146665500,6.56966552734375,0.24709481000900269,0.15149445831775665,0.21395538747310638
1770950133165634800,6.588634765625,0.33078327775001526,-0.037262752652168274,0.31902414560317993
1770950133184604000,6.60760400390625,0.37232208251953125,-0.16004657745361328,0.3257436454296112
1770950133203573500,6.626573486328125,0.34788748621940613,-0.14049890637397766,0.30253079533576965
1770950133222542600,6.64554248046875,0.3344484567642212,-0.05803215503692627,0.33001968264579773
1770950133241512000,6.664511962890625,0.3087921440601349,-0.018325943499803543,0.40576693415641785
1770950133260481300,6.683481201171875,0.21716243028640747,-0.049480047076940536,0.45158177614212036
1770950133279450600,6.70245068359375,0.09987638890743256,-0.1545487940311432,0.42959064245224
1770950133298420000,6.721419921875,-0.029016077518463135,-0.23457208275794983,0.2945895493030548
1770950133317389300,6.740389404296875,-0.20127993822097778,-0.33658650517463684,0.049632761627435684
1770950133336358700,6.759358642578125,-0.35705047845840454,-0.4147771894931793,-0.24663665890693665
1770950133355328000,6.778327880859375,-0.37659814953804016,-0.3958403766155243,-0.4970912039279938
1770950133374297300,6.79729736328125,-0.5329795479774475,-0.29993459582328796,-0.679739773273468
1770950133393266700,6.8162666015625,-1.0906990766525269,-0.029932374134659767,-0.9167553186416626
1770950133412236000,6.835236083984375,-1.609323263168335,0.3335321843624115,-1.1543817520141602
1770950133431205400,6.854205322265625,-1.5225805044174194,0.48930269479751587,-1.0822997093200684
1770950133450174500,6.873174560546875,-0.980743408203125,-0.004276053514331579,-0.8941532969474792
1770950133469143800,6.892143798828125,-0.3136790692806244,-0.5143481492996216,-0.9082031846046448
1770950133488113200,6.911113037109375,0.061391908675432205,-0.41233372688293457,-0.9595158696174622
1770950133507082500,6.93008251953125,0.035124726593494415,0.03909534588456154,-0.7102830410003662
1770950133526051800,6.9490517578125,-0.25931209325790405,0.2669478952884674,-0.41645705699920654
1770950133545021200,6.968021240234375,-0.5115992426872253,0.2260199636220932,-0.2338084876537323
1770950133563990500,6.986990478515625,-0.5409207344055176,0.02932151034474373,-0.10063996911048889
1770950133582959600,7.005959716796875,-0.28435754776000977,-0.19364413619041443,0.11255183815956116
1770950133601929000,7.024928955078125,0.08521563559770584,-0.4159989058971405,0.4399753510951996
1770950133620898300,7.043898193359375,0.3741546869277954,-0.5198459029197693,0.7887791395187378
1770950133639867600,7.06286767578125,0.44990190863609314,-0.5082395076751709,1.012966513633728
1770950133658837000,7.0818369140625,0.3906480371952057,-0.4221075773239136,1.1100940704345703
1770950133677806000,7.10080615234375,0.2782489061355591,-0.3591884970664978,1.080161690711975
1770950133696775400,7.119775390625,0.1285870373249054,-0.4013381600379944,0.8889609575271606
1770950133715744800,7.138744873046875,-0.06200277432799339,-0.4831940531730652,0.6782126426696777
1770950133734714000,7.157714111328125,-0.2684750556945801,-0.5051851868629456,0.5615374445915222
1770950133753683500,7.176683349609375,-0.45967575907707214,-0.4263836145401001,0.3776671588420868
1770950133772652500,7.195652587890625,-0.620333194732666,-0.08552107214927673,0.09361502528190613
1770950133791622000,7.214621826171875,-0.6911935210227966,0.287106454372406,-0.17394374310970306
1770950133810591200,7.23359130859375,-0.6710349321365356,0.5045742988586426,-0.4127918779850006
1770950133829560600,7.252560546875,-0.5225948095321655,0.5345066785812378,-0.5844448804855347
1770950133848530000,7.271530029296875,-0.14569124579429626,0.4886918365955353,-0.5404626131057739
1770950133867499000,7.2904990234375,0.32589635252952576,0.4276053309440613,-0.2991710305213928
1770950133886468400,7.30946826171875,0.46456265449523926,0.10873392969369888,-0.2845102846622467
1770950133905437700,7.328437744140625,0.3289506733417511,0.01282816007733345,-0.24113887548446655
1770950133924407000,7.347406982421875,0.364991694688797,0.24923282861709595,0.20173808932304382
1770950133943376100,7.366376220703125,0.6398808360099792,0.12705987691879272,0.6727148294448853
1770950133962345500,7.385345458984375,0.8402445316314697,-0.5070177912712097,0.8242093324661255
1770950133981314800,7.404314697265625,0.7254019379615784,-1.1123847961425781,0.6317868828773499
1770950134000284000,7.423283935546875,0.39675667881965637,-1.1600322723388672,0.32391104102134705
1770950134019253200,7.442253173828125,0.06994401663541794,-0.7293725609779358,0.08811724185943604
1770950134038222600,7.46122265625,-0.1340848207473755,-0.13439024984836578,-0.05787943676114082
1770950134057191700,7.480191650390625,-0.18784092366695404,0.2724456787109375,-0.12446369975805283
1770950134076161000,7.4991611328125,-0.12492185086011887,0.3952295184135437,-0.12996147572994232
1770950134095130400,7.51813037109375,-0.013744457624852657,0.2981020212173462,-0.1256854236125946
1770950134114099500,7.537099365234375,0.13775001466274261,0.1594357043504715,-0.1153007298707962
1770950134133068800,7.55606884765625,0.33017241954803467,-0.014660755172371864,-0.16844595968723297
1770950134152038100,7.5750380859375,0.5696313977241516,-0.15821397304534912,-0.300392746925354
1770950134171007200,7.59400732421875,0.7999274134635925,-0.3084867000579834,-0.47143489122390747
1770950134189976600,7.6129765625,0.9318742156028748,-0.44898560643196106,-0.6675224900245667
1770950134208945700,7.631945556640625,0.9129374027252197,-0.5155698657035828,-0.7890845537185669
1770950134227915000,7.6509150390625,0.6875283122062683,-0.2608392536640167,-0.7780889868736267
1770950134246884400,7.66988427734375,0.3222311735153198,0.36774060130119324,-0.6546943187713623
1770950134265853700,7.688853759765625,0.0565049909055233,0.8405499458312988,-0.568562388420105
1770950134284822800,7.70782275390625,-0.026572618633508682,0.8729257583618164,-0.7041743993759155
1770950134303792000,7.726792236328125,-0.041844237595796585,0.7012727856636047,-0.9961677193641663
1770950134322761200,7.74576123046875,-0.04001164436340332,0.5571087002754211,-1.1843141317367554
1770950134341730600,7.76473046875,0.018631376326084137,0.583375871181488,-1.187368392944336
1770950134360699600,7.78369970703125,0.14630211889743805,0.8210022449493408,-1.1568251848220825
1770950134379669000,7.8026689453125,0.2263254076242447,0.9883792400360107,-1.226463794708252
1770950134398638000,7.82163818359375,0.1646280586719513,0.963333785533905,-1.190422773361206
1770950134417607400,7.840607421875,-0.03634645417332649,0.6633991599082947,-1.0719150304794312
1770950134436576500,7.859576416015625,-0.04062250629067421,0.2761108875274658,-0.7713695168495178
1770950134455545900,7.8785458984375,0.09865466505289078,-0.11178825795650482,-0.2900080680847168
1770950134474515000,7.897514892578125,0.19089524447917938,-0.37812530994415283,0.1516471803188324
1770950134493484300,7.916484375,0.15546508133411407,-0.3066541254520416,0.3923279047012329
1770950134512453600,7.93545361328125,0.03451386094093323,-0.04581485688686371,0.4173733592033386
1770950134531422700,7.954422607421875,-0.10598503798246384,0.23457208275794983,0.38499751687049866
1770950134550391800,7.973391845703125,-0.2360992431640625,0.38728827238082886,0.30253079533576965
1770950134569361200,7.992361083984375,-0.3032943606376648,0.40927940607070923,0.212733656167984
1770950134588330200,8.011330322265625,-0.29901832342147827,0.2571740746498108,0.16325360536575317
1770950134607299600,8.030299560546876,-0.22327107191085815,0.0409279391169548,0.19501857459545135
1770950134626268700,8.0492685546875,-0.1029307171702385,-0.10018182545900345,0.3098611533641815
1770950134645238000,8.068238037109374,0.02107483521103859,-0.15149445831775665,0.4760163724422455
1770950134664207400,8.087207275390625,0.08826996386051178,-0.21380266547203064,0.6275108456611633
1770950134683176400,8.106176513671874,0.061391908675432205,-0.2620609998703003,0.6940951347351074
1770950134702145800,8.125145751953125,-0.03329212963581085,-0.35063639283180237,0.6843212842941284
1770950134721115000,8.144114990234375,-0.15485422313213348,-0.4007273018360138,0.5884155035018921
1770950134740084000,8.163083984375,-0.3191768527030945,-0.38240134716033936,0.3770562708377838
1770950134759053300,8.18205322265625,-0.4932733178138733,-0.2889390289783478,0.06612611562013626
1770950134778022400,8.2010224609375,-0.5830704569816589,-0.06719512492418289,-0.2185368686914444
1770950134796991500,8.219991455078125,-0.5867356061935425,0.21502439677715302,-0.37552911043167114
1770950134815960800,8.2389609375,-0.536644697189331,0.41844236850738525,-0.4134027361869812
1770950134834930000,8.257929931640625,-0.38698282837867737,0.5803215503692627,-0.3217730224132538
1770950134853899300,8.276899169921874,-0.06750056147575378,0.7562506198883057,-0.14034618437290192
1770950134872868400,8.295868408203125,0.4566214084625244,0.7367029190063477,-0.04566214233636856
1770950134891837400,8.31483740234375,0.7516691088676453,0.4276053309440613,-0.08048143237829208
1770950134910806800,8.333806884765625,0.5885682106018066,0.08552107214927673,-0.09697478264570236
1770950134929775900,8.35277587890625,0.2935205399990082,0.1282816082239151,0.12904518842697144
1770950134948745000,8.371744873046875,0.36621344089508057,0.34208428859710693,0.5633700489997864
1770950134967714300,8.39071435546875,0.7388409376144409,0.24862197041511536,0.8706350326538086
1770950134986683400,8.409683349609375,1.0900882482528687,-0.2626718580722809,0.892626166343689
1770950135005652700,8.42865283203125,1.0906990766525269,-0.8179479241371155,0.7851139307022095
1770950135024621800,8.447621826171876,0.7327322959899902,-0.9584468603134155,0.672104001045227
1770950135043591000,8.4665908203125,0.20127993822097778,-0.7336485981941223,0.44669488072395325
1770950135062560300,8.485560302734376,-0.2464839369058609,-0.29443681240081787,0.09544762223958969
1770950135081529300,8.504529296875,-0.5079340934753418,0.06047561392188072,-0.25213444232940674
1770950135100498400,8.52349853515625,-0.5897899270057678,0.24312418699264526,-0.43600472807884216
1770950135119467800,8.5424677734375,-0.5097666382789612,0.3170388340950012,-0.43172869086265564
1770950135138436900,8.561436767578124,-0.27091851830482483,0.32131487131118774,-0.2997818887233734
1770950135157406000,8.580406005859375,0.03817904740571976,0.26450446248054504,-0.05849030241370201
1770950135176375000,8.599375,0.24342961609363556,-0.04214967042207718,0.09117157012224197
1770950135195344100,8.61834423828125,0.3637699782848358,-0.32009315490722656,0.15286891162395477
1770950135214313500,8.6373134765625,0.37843072414398193,-0.5045742988586426,0.1815795600414276
1770950135233282600,8.656282470703125,0.2525925934314728,-0.5943714380264282,0.20723587274551392
1770950135252251600,8.675251708984375,0.024740023538470268,-0.6224712133407593,0.23105959594249725
1770950135271221000,8.694220947265626,-0.1750127524137497,-0.49418962001800537,0.2952004075050354
1770950135290190000,8.713190185546875,-0.27397283911705017,-0.27977606654167175,0.40576693415641785
1770950135309159200,8.7321591796875,-0.33567020297050476,-0.16310089826583862,0.4644099473953247
1770950135328128300,8.751128173828125,-0.4248564541339874,-0.11545344442129135,0.3917170464992523
1770950135347097300,8.770097412109376,-0.5390881896018982,-0.09957095980644226,0.18402300775051117
1770950135366066700,8.789066650390625,-0.5775726437568665,-0.09529490768909454,-0.007788525894284248
1770950135385035800,8.808035888671874,-0.5030471682548523,-0.15027274191379547,-0.06582067906856537
1770950135404004900,8.8270048828125,-0.5195404887199402,-0.25350889563560486,-0.08842267841100693
1770950135422974000,8.845973876953124,-0.7596103549003601,-0.27550002932548523,-0.2026543915271759
1770950135441943000,8.864943115234375,-1.0778708457946777,-0.24006985127925873,-0.3572031855583191
1770950135460912000,8.883912109375,-1.1340705156326294,-0.10934479534626007,-0.3730856776237488
1770950135479881500,8.902881591796875,-0.8365793228149414,-0.05925388261675835,-0.19471314549446106
1770950135498850600,8.9218505859375,-0.33567020297050476,-0.2467893660068512,0.0007635809597559273
1770950135517819600,8.940819580078125,0.17806708812713623,-0.2968802750110626,0.11133010685443878
1770950135536788700,8.959788818359375,0.3338375985622406,-0.17653992772102356,0.1516471803188324
1770950135555757800,8.9787578125,0.12370011955499649,-0.0054977829568088055,0.16386447846889496
1770950135574727000,8.997726806640625,-0.2409861534833908,0.1441640853881836,0.15531237423419952
1770950135593696000,9.016696044921876,-0.5623010396957397,0.15638138353824615,0.09972367435693741
1770950135612665300,9.035665283203125,-0.7144063711166382,0.008552107028663158,0.049632761627435684
1770950135631634400,9.054634521484376,-0.68386310338974,-0.24251331388950348,0.05451968312263489
1770950135650603500,9.073603515625,-0.5433642268180847,-0.411722868680954,0.15470150113105774
1770950135669572600,9.092572509765626,-0.4175260663032532,-0.4520399272441864,0.304974228143692
1770950135688541700,9.111541748046875,-0.37659814953804016,-0.3915643095970154,0.47723811864852905
1770950135707510800,9.1305107421875,-0.40286532044410706,-0.36224281787872314,0.5542070865631104
1770950135726480000,9.14947998046875,-0.4828886091709137,-0.3530798554420471,0.48823368549346924
1770950135745449000,9.168448974609374,-0.5708531141281128,-0.35063639283180237,0.3685041666030884
1770950135764418000,9.18741796875,-0.6514872908592224,-0.3390299379825592,0.2799287736415863
1770950135783387100,9.20638720703125,-0.7431169748306274,-0.19853104650974274,0.20662501454353333
1770950135802356200,9.225356201171875,-0.8029817342758179,0.007330377586185932,0.1925751268863678
1770950135821325300,9.2443251953125,-0.7211259007453918,0.21197007596492767,0.2695440948009491
1770950135840294400,9.26329443359375,-0.4975493550300598,0.3133736252784729,0.3104720115661621
1770950135859263500,9.282263427734375,-0.21471896767616272,0.28527384996414185,0.28725916147232056
1770950135878232600,9.301232666015625,0.032070402055978775,0.17043127119541168,0.16508620977401733
1770950135897201700,9.32020166015625,0.19211697578430176,0.08796452730894089,-0.08048143237829208
1770950135916170800,9.339170654296876,0.20738859474658966,-0.001221729558892548,-0.46227192878723145
1770950135935139800,9.358139892578125,0.13103049993515015,0.07635809481143951,-0.689513623714447
1770950135954109000,9.37710888671875,0.11148282140493393,0.3402516841888428,-0.4653262495994568
1770950135973078000,9.396078125,0.4315759539604187,0.6530144214630127,0.19990549981594086
1770950135992047000,9.415047119140626,1.0540472269058228,0.5900954008102417,0.7209731340408325
1770950136011016200,9.43401611328125,1.609323263168335,0.09651663154363632,0.7802270650863647
1770950136029985300,9.4529853515625,1.8164063692092896,-0.5076286196708679,0.5584831237792969
1770950136048954400,9.471954345703125,1.5861103534698486,-0.7550288438796997,0.23777911067008972
1770950136067923500,9.49092333984375,1.0974185466766357,-0.5845975875854492,-0.1256854236125946
1770950136086892500,9.509892578125,0.5971203446388245,-0.053145237267017365,-0.42012226581573486
1770950136105861600,9.528861572265624,0.2458730787038803,0.37812530994415283,-0.669965922832489
1770950136124830700,9.547830810546875,0.03756818547844887,0.5131264328956604,-0.8300125002861023
1770950136143799800,9.5667998046875,-0.0565049909055233,0.45937031507492065,-0.7939714789390564
1770950136162769000,9.585768798828125,0.007635809946805239,0.3445277214050293,-0.5221366882324219
1770950136181738000,9.604738037109374,0.22266021370887756,0.26450446248054504,-0.24236060678958893
1770950136200706800,9.623706787109375,0.5219839811325073,0.16004657745361328,-0.15378521382808685
1770950136219676000,9.642676025390625,0.8213077187538147,0.026878049597144127,-0.21975859999656677
1770950136238645000,9.66164501953125,1.015562653541565,-0.0769689604640007,-0.3266599476337433
1770950136257614000,9.680614013671875,1.053436279296875,-0.1533270627260208,-0.3468184769153595
1770950136276583200,9.699583251953126,0.96180659532547,-0.2528980076313019,-0.300392746925354
1770950136295552300,9.71855224609375,0.8420770764350891,-0.30115634202957153,-0.12446369975805283
1770950136314521000,9.73752099609375,0.8084795475006104,-0.16798780858516693,0.18280129134655
1770950136333490200,9.756490234375,0.8720094561576843,-0.0256563201546669,0.33857181668281555
1770950136352459300,9.775459228515626,0.9361502528190613,-0.06230820715427399,0.17424917221069336
1770950136371428400,9.794428466796875,0.8897245526313782,-0.1081230640411377,0.0038179049734026194
1770950136390397400,9.8133974609375,0.711962878704071,-0.08307760953903198,-0.006566796451807022
1770950136409366500,9.832366455078125,0.6191114783287048,-0.010995565913617611,0.12171480804681778
1770950136428335600,9.851335693359376,0.8628464937210083,0.12461641430854797,0.5181660652160645
1770950136447304400,9.870304443359375,1.267238974571228,0.42943793535232544,0.827874481678009
1770950136466273500,9.8892734375,1.0876446962356567,0.7373138070106506,0.4399753510951996
1770950136485242600,9.90824267578125,0.4938841760158539,0.5583304166793823,-0.4042397737503052
1770950136504211700,9.927211669921874,-0.0027488914784044027,-0.025045456364750862,-0.9906699657440186
1770950136523180500,9.9461806640625,-0.28985533118247986,-0.08613193035125732,-0.9558506608009338
1770950136542149600,9.965149658203124,-0.18661919236183167,0.32620179653167725,-0.5661189556121826
1770950136561118700,9.98411865234375,0.29535311460494995,0.822834849357605,0.07589995115995407
1770950136580087800,10.003087890625,0.8616247773170471,1.3891065120697021,0.585972011089325
1770950136599057000,10.022056884765625,0.8353576064109802,0.8906408548355103,0.3837758004665375
1770950136618026000,10.04102587890625,0.23365578055381775,0.36224281787872314,0.036193739622831345
1770950136636994800,10.059994873046875,-0.22510367631912231,0.010384701192378998,-0.2130390852689743
1770950136655964000,10.0789638671875,-0.4321868419647217,0.05864302068948746,-0.33826637268066406
1770950136674933000,10.09793310546875,-0.4633409380912781,0.2315177470445633,-0.29306238889694214
1770950136693901800,10.11690185546875,-0.4199695289134979,0.36163195967674255,-0.13973531126976013
1770950136712871000,10.135870849609375,-0.35766133666038513,0.3842339515686035,-0.05787943676114082
1770950136731840000,10.154840087890625,-0.33505934476852417,0.3298669755458832,-0.08720094710588455
1770950136750809000,10.17380908203125,-0.2965748608112335,0.287106454372406,-0.09575305134057999
1770950136769778000,10.19277783203125,-0.13469567894935608,0.22296564280986786,0.017867794260382652
1770950136788747000,10.2117470703125,0.13469567894935608,0.053145237267017365,0.3110828995704651
1770950136807716000,10.230716064453125,0.39186975359916687,-0.15210533142089844,0.5902481079101562
1770950136826685000,10.249684814453126,0.5103775262832642,-0.3243691921234131,0.6574432253837585
1770950136845654000,10.268654052734375,0.49144071340560913,-0.37323838472366333,0.5291616320610046
1770950136864623000,10.287623046875,0.416304349899292,-0.277332603931427,0.4021017551422119
1770950136883592000,10.306592041015625,0.3607156574726105,-0.10690133273601532,0.3006981909275055
1770950136902561000,10.32556103515625,0.34666576981544495,0.04764745384454727,0.2738201320171356
1770950136921530000,10.344530029296875,0.30146175622940063,0.12583814561367035,0.33979353308677673
1770950136940499000,10.3634990234375,0.1805105358362198,0.13683371245861053,0.5309942364692688
1770950136959468000,10.382468017578125,0.0821613147854805,0.053756099194288254,0.6928733587265015
1770950136978437000,10.40143701171875,0.06811141967773438,-0.03848448023200035,0.6916516423225403
1770950136997406000,10.420406005859375,0.14019346237182617,-0.07635809481143951,0.5792525410652161
1770950137016375000,10.439375,0.24892739951610565,-0.050090912729501724,0.4637990891933441
1770950137035344100,10.45834423828125,0.3448331654071808,0.06536252796649933,0.3917170464992523
1770950137054313000,10.47731298828125,0.43463030457496643,0.36163195967674255,0.4399753510951996
1770950137073282000,10.496281982421875,0.3808741867542267,0.49663305282592773,0.3825540542602539
1770950137092251000,10.5152509765625,0.09498947113752365,0.050090912729501724,-0.05238165333867073
1770950137111220000,10.534219970703125,-0.3228420317173004,-0.4428769648075104,-0.5441278219223022
1770950137130188800,10.553188720703124,-0.43829548358917236,0.01588248461484909,-0.45616328716278076
1770950137149158000,10.572157958984375,0.04978547990322113,0.6688969135284424,-0.05849030241370201
1770950137168127000,10.591126953125,1.0577123165130615,1.1899645328521729,0.30314165353775024
1770950137187095800,10.610095703125,1.9868377447128296,0.943175196647644,0.3685041666030884
1770950137206065000,10.62906494140625,1.9752312898635864,0.2162461280822754,0.11255183815956116
1770950137225033700,10.64803369140625,1.3924663066864014,-0.27488914132118225,-0.21059563755989075
1770950137244002800,10.6670029296875,0.6130027770996094,-0.6560688018798828,-0.5655080676078796
1770950137262971600,10.6859716796875,-0.014966187067329884,-0.4770853817462921,-0.7328850030899048
1770950137281940700,10.704940673828125,-0.324063777923584,0.07819069176912308,-0.606436014175415
1770950137300909600,10.72390966796875,-0.2813032269477844,0.5210676789283752,-0.301003634929657
1770950137319878700,10.742878662109375,-0.003359756199643016,0.8148936033248901,-0.012675444595515728
1770950137338847700,10.76184765625,0.20616686344146729,0.7006618976593018,0.03252854943275452
1770950137357816600,10.780816650390625,0.22815799713134766,0.46486809849739075,-0.05482511222362518
1770950137376785700,10.79978564453125,0.10537417232990265,0.1948658674955368,-0.2698495090007782
1770950137395754500,10.81875439453125,-0.04550942778587341,0.0030543238390237093,-0.5086976289749146
1770950137414723600,10.8377236328125,-0.11759147047996521,-0.04764745384454727,-0.6180424690246582
1770950137433692400,10.8566923828125,-0.10659590363502502,0.03176496922969818,-0.567951500415802
1770950137452661500,10.87566162109375,-0.03390299528837204,0.19181154668331146,-0.3883572816848755
1770950137471630300,10.89463037109375,0.06383536756038666,0.31459537148475647,-0.31932955980300903
1770950137490599400,10.913599365234376,0.17623448371887207,0.3249800503253937,-0.3681987524032593
1770950137509568300,10.932568359375,0.26480987668037415,0.27550002932548523,-0.40057456493377686
1770950137528537000,10.951537109375,0.31184646487236023,0.1490510106086731,-0.34987279772758484
1770950137547506200,10.970506103515625,0.36621344089508057,-0.08002328872680664,-0.1977674663066864
1770950137566475000,10.98947509765625,0.4376846253871918,-0.29565855860710144,0.04474584385752678
1770950137585444000,11.008444091796875,0.44440412521362305,-0.3707949221134186,0.3116937577724457
1770950137604413000,11.027412841796876,0.32162031531333923,-0.1747073233127594,0.49312058091163635
1770950137623382000,11.046382080078125,0.08765909820795059,0.046425722539424896,0.5352702736854553
1770950137642350800,11.065350830078126,-0.12064579129219055,-0.01954767294228077,0.5364919900894165
1770950137661319700,11.084319580078125,-0.12064579129219055,-0.4477638900279999,0.614682674407959
1770950137680288800,11.103288818359376,-0.03634645417332649,-1.2058470249176025,0.6415607333183289
1770950137699257600,11.122257568359375,-0.08643736690282822,-1.4874557256698608,0.6727148294448853
1770950137718226700,11.141226806640624,-0.4150826036930084,-1.0360267162322998,0.5731438994407654
1770950137737195500,11.160195556640625,-1.2037090063095093,-0.5204567909240723,0.24327689409255981
1770950137756164400,11.179164306640626,-1.7192789316177368,0.13255766034126282,-0.12018764764070511
1770950137784618000,11.207617919921875,-1.2544108629226685,0.3127627670764923,-0.5270236134529114
1770950137803586800,11.2265869140625,-0.9587522745132446,-0.38667741417884827,-0.8880446553230286
1770950137822555600,11.2455556640625,-0.8817833065986633,-1.2418880462646484,-1.3981167078018188
1770950137841524700,11.264524658203126,-0.7400626540184021,-1.2705987691879272,-1.7029383182525635
1770950137860493600,11.28349365234375,-0.5213730931282043,-0.5974257588386536,-1.4598140716552734
1770950137879462400,11.30246240234375,-0.29413139820098877,0.05192350596189499,-0.9271399974822998
1770950137898431500,11.321431396484375,-0.10354158282279968,0.36835145950317383,-0.20509785413742065
1770950137917400300,11.340400390625,-0.1334739476442337,0.15577052533626556,0.37094762921333313
1770950137936369200,11.359369140625,-0.20677772164344788,-0.24984370172023773,0.5371028780937195
1770950137955338200,11.378338134765626,-0.18600831925868988,-0.4098902642726898,0.471129447221756
1770950137974307000,11.39730712890625,-0.03023780696094036,-0.35063639283180237,0.41554075479507446
1770950137993276000,11.41627587890625,0.12125665694475174,-0.21685700118541718,0.35017824172973633
1770950138031213800,11.4542138671875,0.16584978997707367,0.15210533142089844,0.28664830327033997
1770950138050182700,11.4731826171875,0.1389717310667038,0.21991132199764252,0.35384342074394226
1770950138069151700,11.49215185546875,0.11759147047996521,0.05070177838206291,0.24083344638347626
1770950138088120600,11.51112060546875,0.1078176349401474,-0.12644900381565094,0.07773254066705704
1770950138107089400,11.53008935546875,0.2202167510986328,0.09651663154363632,0.08323032408952713
1770950138126058500,11.54905859375,0.5794052481651306,0.5216785073280334,0.24999640882015228
1770950138145027300,11.56802734375,0.8292489647865295,0.4990765154361725,0.22189663350582123
1770950138163996200,11.58699609375,0.6630937457084656,0.07757982611656189,-0.11591159552335739
1770950138182965200,11.60596533203125,0.31123560667037964,-0.17165300250053406,-0.43722647428512573
1770950138201934000,11.62493408203125,0.1701258420944214,0.06352993845939636,-0.4353938698768616
1770950138220903000,11.64390283203125,0.27580544352531433,0.29077163338661194,-0.22525638341903687
1770950138239871700,11.662871826171875,0.5323686599731445,0.29016077518463135,-0.08536835014820099
1770950138258840800,11.6818408203125,0.6514872908592224,0.23273947834968567,-0.08536835014820099
1770950138277809700,11.7008095703125,0.5164861679077148,0.0824667438864708,-0.18677189946174622
1770950138296778500,11.719778564453126,0.30085089802742004,-0.12278381735086441,-0.31322091817855835
1770950138315747300,11.738747314453125,0.21410810947418213,-0.258395791053772,-0.41645705699920654
1770950138334716400,11.75771630859375,0.24892739951610565,-0.2461785078048706,-0.4689914286136627
1770950138353685200,11.776685302734375,0.3087921440601349,-0.164322629570961,-0.5154171586036682
1770950138372654000,11.795654052734376,0.34177884459495544,-0.0256563201546669,-0.58749920129776
1770950138391623200,11.814623046875,0.3912588953971863,0.06963858753442764,-0.6827940940856934
1770950138410592000,11.833592041015624,0.4376846253871918,-0.1496618688106537,-0.8122974634170532
1770950138429560800,11.852560791015625,0.4046979248523712,-0.4789179861545563,-0.8862120509147644
1770950138448529700,11.87152978515625,0.3643808364868164,-0.6359102129936218,-0.7469348907470703
1770950138467498500,11.89049853515625,0.41263917088508606,-0.5326740741729736,-0.36453354358673096
1770950138486467300,11.90946728515625,0.5250383019447327,-0.06230820715427399,0.14798198640346527
1770950138505436400,11.9284365234375,0.5262600183486938,-0.06108647957444191,0.5584831237792969
1770950138524405200,11.9474052734375,0.47372564673423767,-0.21258094906806946,0.8571959733963013
1770950138543374000,11.9663740234375,0.3943132162094116,-0.4929678738117218,0.8651372194290161
1770950138562343000,11.985343017578124,0.3430005609989166,-0.6328558921813965,0.6360629796981812
1770950138581312000,12.00431201171875,0.29046618938446045,-0.5497782826423645,0.18402300775051117
1770950138600280800,12.02328076171875,0.26358816027641296,-0.2205221801996231,-0.29367324709892273
1770950138619249700,12.042249755859375,0.2458730787038803,0.1337793916463852,-0.6198750138282776
1770950138638218500,12.061218505859374,0.2562577724456787,0.2162461280822754,-0.7286089658737183
1770950138657187300,12.080187255859375,0.2971857190132141,0.07574722915887833,-0.7096721529960632
1770950138676156400,12.099156494140624,0.14630211889743805,0.07574722915887833,-0.689513623714447
1770950138695125200,12.118125244140625,-0.2159406989812851,0.33108872175216675,-0.7848085165023804
1770950138714094000,12.137093994140624,-0.5042688846588135,0.5693259835243225,-0.8984293937683105
1770950138733063000,12.15606298828125,-0.5342012643814087,0.5186241865158081,-0.8953750729560852
1770950138752031700,12.17503173828125,-0.4529562294483185,0.3439168632030487,-0.8886555433273315
1770950138771000600,12.19400048828125,-0.29535311460494995,0.3237583339214325,-0.8593340516090393
1770950138789969400,12.212969482421874,-0.038789913058280945,0.3237583339214325,-0.734717607498169
1770950138808938500,12.2319384765625,0.26419901847839355,0.42394015192985535,-0.4689914286136627
1770950138827907300,12.2509072265625,0.4572322964668274,0.5393936038017273,-0.21059563755989075
1770950138846876200,12.269876220703125,0.37781986594200134,0.49541133642196655,-0.03894263133406639
1770950138865845000,12.288844970703124,0.08582650125026703,0.3659079968929291,0.020922118797898293
1770950138884813800,12.307813720703125,-0.10231985151767731,0.12400554865598679,0.07345648854970932
1770950138903782700,12.32678271484375,-0.13530655205249786,-0.030543239787220955,0.1663079410791397
1770950138922751500,12.34575146484375,-0.10354158282279968,0.06352993845939636,0.30314165353775024
1770950138941720300,12.36472021484375,-0.08032871782779694,0.2614501118659973,0.4454731345176697
1770950138960689200,12.383689208984375,-0.11759147047996521,0.2767217457294464,0.6061305999755859
1770950138979658000,12.402657958984374,-0.18906265497207642,0.15271618962287903,0.716697096824646
1770950138998626800,12.421626708984375,-0.29962918162345886,0.004886918235570192,0.7527381181716919
1770950139017596000,12.440595947265624,-0.3704894781112671,-0.023212861269712448,0.7050906419754028
1770950139036564700,12.459564697265625,-0.38698282837867737,0.10201441496610641,0.7008146047592163
1770950139074502400,12.49750244140625,-0.27580544352531433,0.370184063911438,0.5743656158447266
1770950139102955800,12.525955810546876,-0.3631591200828552,0.2993237376213074,0.30375251173973083
1770950139121924600,12.544924560546875,-0.27580544352531433,0.5015199780464172,0.19379685819149017
1770950139140893400,12.5638935546875,0.008857538923621178,0.637742817401886,0.0435241162776947
1770950139159862300,12.5828623046875,0.4004218578338623,0.6224712133407593,-0.004734201822429895
1770950139178831000,12.6018310546875,0.7082977294921875,0.5681042671203613,0.12232567369937897
1770950139197800000,12.620800048828125,0.6563742160797119,0.3738492429256439,0.33429574966430664
1770950139216768800,12.639768798828126,0.38209593296051025,-0.27855435013771057,0.05513054504990578
1770950139235737600,12.658737548828125,-0.05589412897825241,-0.12522727251052856,-0.26129740476608276
1770950139254706400,12.67770654296875,-0.22754712402820587,0.258395791053772,-0.3217730224132538
1770950139273675300,12.69667529296875,0.021685699000954628,0.20402882993221283,-0.10797034949064255
1770950139292644000,12.71564404296875,0.5067123174667358,-0.2779434621334076,0.16325360536575317
1770950139311613000,12.734613037109375,0.9495893120765686,-0.5119046568870544,0.4039343297481537
1770950139330581800,12.753581787109376,1.0619884729385376,-0.30115634202957153,0.4644099473953247
1770950139349550600,12.772550537109375,0.767551600933075,-0.3787361681461334,0.10766492038965225
1770950139368519400,12.79151953125,0.3894262909889221,-0.4043924808502197,-0.300392746925354
1770950139387488300,12.81048828125,0.09804379940032959,-0.2932150959968567,-0.6675224900245667
1770950139406457000,12.82945703125,0.005803215317428112,-0.03909534588456154,-0.8184061050415039
1770950139425426000,12.848426025390625,0.1279761642217636,0.21502439677715302,-0.514195442199707
1770950139444394800,12.867394775390625,0.3692677617073059,0.22846342623233795,0.014813470654189587
1770950139463363600,12.886363525390625,0.600785493850708,-0.12156209349632263,0.3825540542602539
1770950139482332400,12.90533251953125,0.776103675365448,-0.44409868121147156,0.4943423271179199
1770950139501301200,12.92430126953125,0.8426879644393921,-0.5100721120834351,0.346513032913208
1770950139520270000,12.94327001953125,0.7895427346229553,-0.38240134716033936,0.1302669197320938
1770950139539239000,12.962239013671875,0.5885682106018066,-0.13561198115348816,0.13454297184944153
1770950139558207700,12.981207763671875,0.3387245237827301,0.1130099818110466,0.3630063831806183
1770950139577176600,13.000176513671875,0.0925460159778595,0.12461641430854797,0.5810851454734802
1770950139596145400,13.0191455078125,-0.07788526266813278,-0.10140355676412582,0.615293562412262
1770950139615114200,13.0381142578125,-0.15241076052188873,-0.04581485688686371,0.38011062145233154
1770950139634083000,13.0570830078125,-0.07849612087011337,-0.10140355676412582,-0.060322895646095276
1770950139653052000,13.076052001953125,-0.07788526266813278,0.10751219838857651,-0.39996370673179626
1770950139672020700,13.095020751953125,-0.09621120244264603,0.14110976457595825,-0.5978838801383972
1770950139690989600,13.113989501953125,-0.08399390429258347,-0.014660755172371864,-0.6290380358695984
1770950139709958400,13.13295849609375,0.1078176349401474,-0.143553227186203,-0.4390590488910675
1770950139728927200,13.15192724609375,0.33200499415397644,-0.20219624042510986,-0.1928805559873581
1770950139747896000,13.17089599609375,0.2568686306476593,-0.20830489695072174,-0.05971203371882439
1770950139766865000,13.189864990234375,-0.12186752259731293,-0.10995566099882126,-0.12812888622283936
1770950139785833500,13.20883349609375,-0.49571678042411804,0.10873392969369888,-0.25579962134361267
1770950139804802600,13.227802490234374,-0.5598575472831726,0.3090975880622864,-0.25702136754989624
1770950139823771400,13.246771484375,-0.3704894781112671,0.3133736252784729,-0.025503603741526604
1770950139842740000,13.265739990234374,-0.1646280586719513,0.10995566099882126,0.2805396616458893
1770950139861708800,13.284708740234375,-0.10659590363502502,-0.10690133273601532,0.3159697949886322
1770950139880677600,13.303677734375,-0.16157373785972595,-0.11056652665138245,0.14492766559123993
1770950139899646500,13.322646484375,-0.26480987668037415,-0.01588248461484909,0.007483093533664942
1770950139918615300,13.341615234375,-0.36743515729904175,0.09162971377372742,-0.04566214233636856
1770950139937584000,13.360584228515625,-0.43279770016670227,0.10323614627122879,-0.009621120058000088
1770950139956553000,13.379552978515624,-0.4053087830543518,0.039706211537122726,0.14309507608413696
1770950139975521800,13.398521728515625,-0.2886336147785187,-0.06414080411195755,0.29886558651924133
1770950139994490600,13.41749072265625,-0.15546508133411407,-0.1441640853881836,0.36972591280937195
1770950140013459200,13.436459228515625,-0.10537417232990265,-0.10995566099882126,0.3312414288520813
1770950140032428300,13.45542822265625,-0.13591741025447845,0.010995565913617611,0.2683223485946655
1770950140051396900,13.47439697265625,-0.17134757339954376,0.07819069176912308,0.23167046904563904
1770950140070365700,13.49336572265625,-0.18906265497207642,0.06108647957444191,0.25182899832725525
1770950140089334500,13.51233447265625,-0.2049451321363449,0.020158538594841957,0.35017824172973633
1770950140108303400,13.531303466796874,-0.2098320573568344,-0.027488915249705315,0.4094321131706238
1770950140127272200,13.550272216796875,-0.18417572975158691,0.011606430634856224,0.38988444209098816
1770950140146241000,13.569240966796874,-0.1383608728647232,0.19608759880065918,0.21700970828533173
1770950140165209900,13.5882099609375,-0.08949168771505356,0.32620179653167725,-0.01511890348047018
1770950140184178700,13.6071787109375,-0.04734202101826668,0.411722868680954,-0.23625195026397705
1770950140203147300,13.626147216796875,-0.03756818547844887,0.45387253165245056,-0.3926333487033844
1770950140222116000,13.6451162109375,-0.0021380267571657896,0.45509424805641174,-0.4140135943889618
1770950140241085000,13.6640849609375,0.17134757339954376,0.3958403766155243,-0.2802342176437378
1770950140260053800,13.6830537109375,0.2929096519947052,0.14294235408306122,-0.22769984602928162
1770950140279022300,13.702022216796875,0.31001389026641846,-0.036651886999607086,-0.33765551447868347
1770950140297991200,13.7209912109375,0.2715294063091278,0.03848448023200035,-0.33276858925819397
1770950140316960300,13.739960205078125,0.4004218578338623,0.17043127119541168,0.06246092543005943
1770950140335928800,13.7589287109375,0.5757400393486023,-0.043371398001909256,0.5749764442443848
1770950140354897700,13.777897705078125,0.6960803866386414,-0.4361574649810791,0.8339831233024597
1770950140373866500,13.796866455078124,0.7302888631820679,-0.7031053900718689,0.6733257174491882
1770950140392835300,13.81583544921875,0.6368265151977539,-0.5858193039894104,0.24572035670280457
1770950140411804200,13.83480419921875,0.41874781250953674,-0.2614501118659973,-0.1922696828842163
1770950140430772700,13.853772705078125,0.1542433500289917,0.029932374134659767,-0.46227192878723145
1770950140449741800,13.872741943359374,-0.041844237595796585,0.1740964651107788,-0.434783011674881
1770950140468710400,13.89171044921875,-0.09315688163042068,0.2107483446598053,-0.21914774179458618
1770950140487679200,13.91067919921875,0.0027488914784044027,0.1337793916463852,-0.01695149764418602
1770950140506648000,13.92964794921875,0.17745621502399445,0.05070177838206291,0.141262486577034
1770950140525617000,13.948616943359376,0.3601047992706299,-0.04581485688686371,0.2438877671957016
1770950140544585700,13.967585693359375,0.5073232054710388,-0.08918625861406326,0.25793763995170593
1770950140563554300,13.98655419921875,0.6062833070755005,-0.08918625861406326,0.1766926348209381
1770950140582523100,14.005523193359375,0.6087267398834229,-0.056810423731803894,0.10277800261974335
1770950140601492000,14.024491943359376,0.48105600476264954,0.007330377586185932,0.13454297184944153
1770950140620460800,14.043460693359375,0.26480987668037415,0.01649334840476513,0.19562944769859314
1770950140639429600,14.0624296875,0.09865466505289078,-0.025045456364750862,0.15836669504642487
1770950140658398500,14.0813984375,0.015577051788568497,0.021380268037319183,0.02458730712532997
1770950140677367000,14.100366943359376,-0.012522728182375431,0.08918625861406326,-0.12202023714780807
1770950140696336000,14.1193359375,-0.015577051788568497,0.15821397304534912,-0.17944152653217316
1770950140715304700,14.1383046875,-0.007635809946805239,0.14049890637397766,-0.21548254787921906
1770950140734273500,14.1572734375,-0.008857538923621178,0.07269290834665298,-0.2857320010662079
1770950140753242400,14.176242431640626,0.04062250629067421,-0.02932151034474373,-0.3871355652809143
1770950140772211200,14.195211181640625,0.11698060482740402,-0.10140355676412582,-0.43172869086265564
1770950140791179800,14.2141796875,0.11087195575237274,-0.001832594396546483,-0.4598284661769867
1770950140810148600,14.233148681640625,-0.09560033679008484,0.18631376326084137,-0.5563451051712036
1770950140829117400,14.252117431640626,-0.34605491161346436,0.40744680166244507,-0.5569559335708618
1770950140848086300,14.271086181640625,-0.3808741867542267,0.3836230933666229,-0.3248273432254791
1770950140867055000,14.29005517578125,-0.2666424810886383,0.002443459117785096,0.08933897316455841
1770950140886023700,14.309023681640625,-0.13530655205249786,-0.2657261788845062,0.3306305706501007
1770950140904992500,14.327992431640626,-0.0870482325553894,-0.19669845700263977,0.2188423126935959
1770950140923961300,14.34696142578125,-0.11636973917484283,-0.07086031138896942,0.07528908550739288
1770950140942930200,14.36593017578125,-0.2660316228866577,-0.11911863088607788,-0.002901607658714056
1770950140961899000,14.38489892578125,-0.47006043791770935,-0.20952661335468292,-0.040775224566459656
1770950140980867800,14.403867919921876,-0.6331613659858704,-0.18875721096992493,-0.0383317656815052
1770950140999836400,14.42283642578125,-0.6539307236671448,-0.13255766034126282,0.04841103404760361
1770950141018805200,14.44180517578125,-0.527481734752655,-0.12644900381565094,0.1974620372056961
1770950141037774000,14.460774169921875,-0.39736753702163696,-0.16798780858516693,0.2952004075050354
1770950141056743000,14.479742919921875,-0.37171122431755066,-0.18692462146282196,0.33857181668281555
1770950141075711500,14.49871142578125,-0.41874781250953674,-0.1490510106086731,0.33918267488479614
1770950141094680300,14.517680419921875,-0.45967575907707214,-0.11178825795650482,0.314748078584671
1770950141113649200,14.536649169921875,-0.4615083336830139,-0.04581485688686371,0.30863943696022034
1770950141132618000,14.555617919921875,-0.4401280879974365,-0.03237583488225937,0.3404043912887573
1770950141151586800,14.5745869140625,-0.43951719999313354,-0.017104214057326317,0.30802857875823975
1770950141170555600,14.5935556640625,-0.46028661727905273,0.04764745384454727,0.18585561215877533
1770950141189524200,14.612524169921874,-0.4621191918849945,0.18325942754745483,-0.011453714221715927
1770950141208493000,14.6314931640625,-0.39858928322792053,0.2822195291519165,-0.21731515228748322
1770950141227462000,14.6504619140625,-0.29413139820098877,0.33047783374786377,-0.27779075503349304
1770950141246430700,14.6694306640625,-0.18845178186893463,0.2632827162742615,-0.21670427918434143
1770950141265399300,14.6883994140625,0.007024944759905338,0.17898337543010712,-0.15012001991271973
1770950141284368100,14.7073681640625,0.25992295145988464,0.20219624042510986,-0.08720094710588455
1770950141303337000,14.7263369140625,0.2868010103702545,0.01893680728971958,-0.2283107042312622
1770950141322305800,14.745305908203125,0.16279546916484833,-0.020158538594841957,-0.38530296087265015
1770950141341274600,14.764274658203124,0.05955931544303894,0.08674279600381851,-0.2851211428642273
1770950141360243200,14.7832431640625,0.21777328848838806,0.01893680728971958,0.16081015765666962
1770950141379212000,14.8022119140625,0.5396990180015564,-0.2932150959968567,0.6959276795387268
1770950141398180900,14.821180908203125,0.7437278628349304,-0.7721330523490906,0.8675807118415833
1770950141417149700,14.840149658203124,0.7076868414878845,-0.7562506198883057,0.6659952998161316
1770950141436118300,14.8591181640625,0.5769617557525635,-0.44470956921577454,0.2811505198478699
1770950141455087000,14.878087158203124,0.4407389461994171,-0.18631376326084137,-0.03283398225903511
1770950141474056000,14.897055908203125,0.25809037685394287,-0.10384701192378998,-0.18371757864952087
1770950141493024800,14.916024658203124,0.05406153202056885,-0.030543239787220955,-0.2179260104894638
1770950141511993600,14.93499365234375,-0.08765909820795059,0.0922405794262886,-0.23441936075687408
1770950141530962200,14.953962158203124,-0.0974329337477684,0.15821397304534912,-0.21426081657409668
1770950141549931000,14.972930908203125,0.022296564653515816,0.13255766034126282,-0.12996147572994232
1770950141568899800,14.99189990234375,0.21227550506591797,-0.023212861269712448,-0.024281874299049377
1770950141587868700,15.01086865234375,0.4004218578338623,-0.19120067358016968,0.04657844081521034
1770950141606837200,15.029837158203126,0.5348120927810669,-0.23212862014770508,0.0850629210472107
1770950141625806000,15.04880615234375,0.5415316224098206,-0.21258094906806946,0.06490438431501389
1770950141644775000,15.06777490234375,0.4321868419647217,-0.12400554865598679,0.0386371985077858
1770950141663743700,15.08674365234375,0.2922987937927246,-0.07391463965177536,-0.05604684352874756
1770950141682712300,15.10571240234375,0.1646280586719513,0.001221729558892548,-0.11713331937789917
1770950141701681200,15.12468115234375,0.06872228533029556,0.07330377399921417,-0.13179408013820648
1770950141720650000,15.14364990234375,-0.011300998739898205,0.08002328872680664,-0.18493930995464325
1770950141739618800,15.162618896484375,-0.05100720748305321,0.0824667438864708,-0.32299473881721497
1770950141758587600,15.181587646484376,-0.06322450190782547,0.20402882993221283,-0.5129737257957458
1770950141777556200,15.20055615234375,-0.06994401663541794,0.3549124300479889,-0.6937896609306335
1770950141796525000,15.219525146484376,0.05406153202056885,0.43982264399528503,-0.6950113773345947
1770950141815494000,15.238493896484375,0.21899501979351044,0.3433060050010681,-0.5355756878852844
1770950141834462700,15.257462646484376,0.14141519367694855,0.25411975383758545,-0.2900080680847168
1770950141853431300,15.276431396484375,-0.19700388610363007,0.1539379209280014,-0.11896591633558273
1770950141872400100,15.295400146484376,-0.6130027770996094,0.1692095398902893,-0.1104138121008873
1770950141891369000,15.314368896484375,-0.7614429593086243,0.2675587832927704,-0.12324196845293045
1770950141910337500,15.333337646484376,-0.6178897023200989,0.2254091054201126,-0.047494735568761826
1770950141929306400,15.352306396484375,-0.3387245237827301,0.013439024798572063,0.08200860023498535
1770950141948275200,15.371275146484376,-0.06566796451807022,-0.12705987691879272,0.1663079410791397
1770950141967244000,15.390244140625,0.07116574794054031,-0.09162971377372742,0.22495095431804657
1770950141986212900,15.409212890625,0.007024944759905338,-0.12278381735086441,0.24572035670280457
1770950142005181400,15.428181396484375,-0.13469567894935608,-0.22418737411499023,0.2585485279560089
1770950142024150300,15.447150390625,-0.31673339009284973,-0.34636032581329346,0.22495095431804657
1770950142043119000,15.466119140625,-0.44990190863609314,-0.3799578845500946,0.18829907476902008
1770950142062087700,15.485087646484375,-0.4633409380912781,-0.3433060050010681,0.19990549981594086
1770950142081056500,15.504056396484375,-0.37843072414398193,-0.3646862804889679,0.2689332067966461
1770950142100025300,15.523025390625,-0.31062474846839905,-0.3530798554420471,0.3098611533641815
1770950142118994200,15.541994140625,-0.3173442482948303,-0.33169957995414734,0.30253079533576965
1770950142137962800,15.560962646484375,-0.3802633285522461,-0.3017672002315521,0.2591593861579895
1770950142156931600,15.579931640625,-0.44868019223213196,-0.24740023910999298,0.1663079410791397
1770950142175900400,15.598900390625,-0.4718930423259735,-0.1844811588525772,0.07406735420227051
1770950142194869000,15.617868896484374,-0.4150826036930084,-0.1081230640411377,0.027030766010284424
1770950142213837800,15.636837890625,-0.30573782324790955,-0.020158538594841957,0.0844520553946495
1770950142232806700,15.655806640625,-0.20250166952610016,0.1178968995809555,0.17302745580673218
1770950142251775200,15.674775146484375,-0.17684535682201385,0.17104214429855347,0.14859285950660706
1770950142270744000,15.693744140625,-0.21716243028640747,0.1899789422750473,0.049632761627435684
1770950142289713000,15.712712890625,-0.2507599890232086,0.26939135789871216,-0.05299251899123192
1770950142308681700,15.731681640625,-0.22693626582622528,0.30604326725006104,-0.16416990756988525
1770950142327650300,15.750650390625,-0.02412915788590908,0.37140578031539917,-0.15073087811470032
1770950142346619100,15.769619140625,0.16829325258731842,0.2412915825843811,-0.1000291109085083
1770950142365588000,15.788587890625,0.13652828335762024,-0.03176496922969818,-0.23014330863952637
1770950142384556500,15.807556640625,-0.011911863461136818,0.043982263654470444,-0.3400989770889282
1770950142403525400,15.826525390625,-0.05711585655808449,0.3695732057094574,-0.2857320010662079
1770950142422494200,15.845494140625,0.19394956529140472,0.42882707715034485,-0.07742711156606674
1770950142441462800,15.864462890625,0.476779967546463,0.012217295356094837,0.10155627131462097
1770950142460431600,15.883431640625,0.5952877402305603,-0.46486809849739075,0.19013166427612305
1770950142479400400,15.902400390625,0.476779967546463,-0.5674933791160583,0.12171480804681778
1770950142498369000,15.921369140625,0.26908594369888306,-0.1899789422750473,-0.08414662629365921
1770950142517337900,15.940337890625,0.11148282140493393,0.22785256803035736,-0.2796233594417572
1770950142536306700,15.959306640625,0.026572618633508682,0.4972439408302307,-0.4231765866279602
1770950142555275300,15.978275146484375,0.008857538923621178,0.6139190793037415,-0.46227192878723145
1770950142574244000,15.997244140625,0.054672397673130035,0.6768381595611572,-0.34926193952560425
1770950142593213000,16.016212890625,0.10842850059270859,0.648127555847168,-0.10125083476305008
1770950142612181500,16.035181396484376,0.15607595443725586,0.48075059056282043,0.11438442766666412
1770950142631150300,16.054150390625,0.27947062253952026,0.2107483446598053,0.2945895493030548
1770950142650119200,16.073119140625,0.4529562294483185,-0.034208428114652634,0.44119709730148315
1770950142669087700,16.092087646484377,0.5965094566345215,-0.13439024984836578,0.4967857897281647
1770950142688056600,16.111056640625,0.6026180982589722,-0.09529490768909454,0.43631017208099365
1770950142707025400,16.130025390625,0.45417797565460205,0.002443459117785096,0.2903134822845459
1770950142725994000,16.148993896484374,0.2629773020744324,0.06047561392188072,0.18096868693828583
1770950142744962800,16.167962890625,0.12980876863002777,0.06108647957444191,0.0948367565870285
1770950142763931600,16.186931640625,0.07849612087011337,0.10445787757635117,-0.03222311660647392
1770950142782900200,16.205900146484375,0.07238747924566269,0.18203771114349365,-0.13484840095043182
1770950142801869000,16.224869140625,0.06322450190782547,0.18203771114349365,-0.20082180202007294
1770950142820837600,16.243837646484376,0.047952886670827866,0.1533270627260208,-0.2692386507987976
1770950142839806500,16.262806396484375,0.016798781231045723,0.11423171311616898,-0.4195113778114319
1770950142858775300,16.281775390625,0.0461202897131443,0.09101885557174683,-0.5893318057060242
1770950142877744000,16.300744140625,0.2507599890232086,0.056199558079242706,-0.5606211423873901
1770950142896712700,16.319712646484376,0.323452889919281,0.006108647678047419,-0.4189005196094513
1770950142915681300,16.338681396484375,0.10170898586511612,0.20647229254245758,-0.16539163887500763
1770950142934650000,16.357650146484374,-0.3992001414299011,0.3652971386909485,-0.10369429737329483
1770950142953619000,16.376618896484374,-0.8402445316314697,0.4312705397605896,-0.2484692484140396
1770950142972587800,16.395587890625,-1.016784429550171,0.24923282861709595,-0.5062541961669922
1770950142991556400,16.414556396484375,-0.9508110284805298,0.09468404203653336,-0.7841976881027222
1770950143010525200,16.433525146484374,-0.6643154621124268,0.05558869615197182,-0.836732029914856
1770950143029493800,16.45249365234375,-0.07849612087011337,0.17592905461788177,-0.5838339924812317
1770950143048462600,16.471462646484376,0.46517354249954224,0.14599667489528656,-0.25152358412742615
1770950143067431200,16.49043115234375,0.664926290512085,0.013439024798572063,-0.004123337101191282
1770950143086400000,16.50939990234375,0.44868019223213196,-0.17043127119541168,0.12110394239425659
1770950143105368800,16.528368896484373,0.05222893878817558,-0.39278605580329895,0.18096868693828583
1770950143124337400,16.54733740234375,-0.21166464686393738,-0.5534434914588928,0.19685117900371552
1770950143143306200,16.56630615234375,-0.2629773020744324,-0.5613847374916077,0.3068068325519562
1770950143162274800,16.58527490234375,-0.2049451321363449,-0.4557051360607147,0.5059487819671631
1770950143181243600,16.60424365234375,-0.1383608728647232,-0.4147771894931793,0.7050906419754028
1770950143200212200,16.623212158203124,-0.1542433500289917,-0.4508182108402252,0.7777835726737976
1770950143219181000,16.64218115234375,-0.24831652641296387,-0.4825831651687622,0.6885973215103149
1770950143238150000,16.66114990234375,-0.3692677617073059,-0.4557051360607147,0.47296205163002014
1770950143257118500,16.680118408203125,-0.40958482027053833,-0.33169957995414734,0.18585561215877533
1770950143276087300,16.69908740234375,-0.3741546869277954,-0.16615521907806396,-0.08231402933597565
1770950143295056000,16.718055908203127,-0.34788748621940613,0.043371398001909256,-0.2680169343948364
1770950143314024700,16.737024658203126,-0.35705047845840454,0.20341797173023224,-0.26618432998657227
1770950143332993500,16.75599365234375,-0.3943132162094116,0.22479823231697083,-0.11652245372533798
1770950143351962000,16.774962158203124,-0.35582873225212097,0.06414080411195755,-0.028557928279042244
1770950143370931000,16.793930908203127,-0.2605338394641876,-0.12950333952903748,-0.1000291109085083
1770950143389899500,16.8128994140625,-0.16096286475658417,-0.1637117564678192,-0.27229297161102295
1770950143408868400,16.831868408203125,-0.13652828335762024,-0.020769402384757996,-0.45799586176872253
1770950143427837000,16.8508369140625,-0.20433427393436432,0.16310089826583862,-0.6412553191184998
1770950143446805800,16.8698056640625,-0.15607595443725586,0.2571740746498108,-0.6369792222976685
1770950143465774300,16.8887744140625,0.09315688163042068,0.20402882993221283,-0.25579962134361267
1770950143484743200,16.9077431640625,0.1951712965965271,-0.0665842592716217,0.32818710803985596
1770950143503712000,16.9267119140625,0.21960589289665222,-0.36835145950317383,0.8364266157150269
1770950143522680600,16.9456806640625,0.20616686344146729,-0.7831286191940308,0.9891427755355835
1770950143541649400,16.9646494140625,0.041844237595796585,-1.0891718864440918,0.44241881370544434
1770950143560618000,16.983617919921876,0.0015271619195118546,-0.647516667842865,-0.45249807834625244
1770950143579586800,17.0025869140625,0.12186752259731293,-0.2669478952884674,-1.0945169925689697
1770950143598555400,17.021555419921874,0.35277441143989563,-0.12522727251052856,-1.0841323137283325
1770950143617524200,17.040524169921873,0.7302888631820679,0.050090912729501724,-0.567951500415802
1770950143636492800,17.059492919921876,1.0418298244476318,-0.009162971749901772,0.10949750989675522
1770950143655461600,17.078461669921875,1.0216712951660156,-0.20219624042510986,0.4558578431606293
1770950143674430200,17.09743017578125,0.8011491298675537,-0.3591884970664978,0.30863943696022034
1770950143693399000,17.11639892578125,0.6282744407653809,-0.24556763470172882,-0.001679878099821508
1770950143712367600,17.13536767578125,0.5977311730384827,-0.03848448023200035,-0.20570871233940125
1770950143731336400,17.15433642578125,0.6087267398834229,0.11972949653863907,-0.25152358412742615
1770950143750305000,17.173304931640626,0.5476402640342712,0.18387030065059662,-0.2075413018465042
1770950143769273900,17.19227392578125,0.45967575907707214,0.24923282861709595,-0.10430516302585602
1770950143788242400,17.211242431640624,0.3955349326133728,0.2626718580722809,-0.021838415414094925
1770950143807211300,17.230211181640627,0.3900371491909027,0.24251331388950348,0.03741546720266342
1770950143826179800,17.249179931640626,0.435241162776947,0.22357651591300964,0.08750637620687485
1770950143845148700,17.268148681640625,0.5342012643814087,0.235793799161911,0.1571449637413025
1770950143864117200,17.2871171875,0.6795870661735535,0.2608392536640167,0.2835939824581146
1770950143883086000,17.306086181640627,0.8463531732559204,0.2828303873538971,0.49250972270965576
1770950143902054700,17.3250546875,0.9947932958602905,0.23335035145282745,0.6714931130409241
1770950143921023500,17.3440234375,1.0638209581375122,0.08857539296150208,0.7576250433921814
1770950143939992000,17.362991943359376,1.081536054611206,-0.043982263654470444,0.780837893486023
1770950143958961000,17.3819609375,1.036332130432129,-0.05803215503692627,0.7008146047592163
1770950143977929500,17.400929443359374,0.9196569323539734,-0.0824667438864708,0.49312058091163635
1770950143996898000,17.41989794921875,0.7608320713043213,-0.1594357043504715,0.1253799945116043
1770950144015867000,17.438866943359375,0.6166679859161377,-0.11239911615848541,-0.2484692484140396
1770950144034835500,17.45783544921875,0.5207622051239014,0.056810423731803894,-0.47204574942588806
1770950144053804300,17.47680419921875,0.49632763862609863,0.22724169492721558,-0.4860956370830536
1770950144072772900,17.49577294921875,0.5714640021324158,0.23335035145282745,-0.2955058515071869
1770950144091741700,17.51474169921875,0.6484329700469971,0.22357651591300964,0.10766492038965225
1770950144110710300,17.533710205078126,0.6264418363571167,0.3530798554420471,0.6085740327835083
1770950144129679000,17.55267919921875,0.4260781705379486,0.5204567909240723,0.8407026529312134
1770950144148647700,17.571647705078124,-0.029016077518463135,0.6524035930633545,0.5590940117835999
1770950144167616500,17.590616455078123,-0.5904008150100708,0.6896663308143616,-0.1409570425748825
1770950144186585000,17.609585205078126,-0.7816014885902405,0.7916807532310486,-0.7237220406532288
1770950144205554000,17.628553955078125,-0.4926624298095703,0.8869756460189819,-0.7878628373146057
1770950144224522500,17.6475224609375,-0.04734202101826668,0.638353705406189,-0.5826122760772705
1770950144243491000,17.666490966796875,0.4523453712463379,0.5210676789283752,-0.2741255760192871
1770950144262460000,17.6854599609375,0.6826413869857788,0.2675587832927704,-0.15073087811470032
1770950144281428500,17.704428466796877,0.7095194458961487,0.09346231073141098,-0.1055268943309784
1770950144300397300,17.723397216796876,0.6117810606956482,0.09468404203653336,-0.15500694513320923
1770950144319366000,17.742365966796875,0.49571678042411804,0.20463970303535461,-0.22953243553638458
1770950144338334500,17.76133447265625,0.4407389461994171,0.30543237924575806,-0.2545779049396515
1770950144357303300,17.78030322265625,0.46517354249954224,0.3347539007663727,-0.1928805559873581
1770950144376272000,17.79927197265625,0.5482511520385742,0.32131487131118774,-0.03588830679655075
1770950144395240400,17.818240478515627,0.630107045173645,0.3133736252784729,0.2084576040506363
1770950144414209300,17.837209228515626,0.6398808360099792,0.3610210716724396,0.3929387629032135
1770950144433177900,17.856177734375,0.5800161361694336,0.4263836145401001,0.4332558512687683
1770950144452146700,17.875146728515624,0.44501498341560364,0.546113133430481,0.28237223625183105
1770950144471115300,17.894115234375,0.2672533392906189,0.6536253094673157,0.06307178735733032
1770950144490084000,17.913083984375,0.07483093440532684,0.7507528066635132,-0.08048143237829208
1770950144509052700,17.932052734375,-0.08643736690282822,0.9034690260887146,-0.12996147572994232
1770950144528021500,17.951021484375,-0.16646064817905426,1.064737319946289,-0.18127411603927612
1770950144546990000,17.969989990234374,-0.16218459606170654,1.1380411386489868,-0.2393062710762024
1770950144565958700,17.988958740234374,-0.08155044913291931,1.153923511505127,-0.36942046880722046
1770950144584927200,18.00792724609375,0.09010255336761475,1.084285020828247,-0.5221366882324219
1770950144603896000,18.02689599609375,0.29413139820098877,0.9016364216804504,-0.6595812439918518
1770950144622864600,18.04586474609375,0.6276635527610779,0.7837395071983337,-0.6406444311141968
1770950144641833500,18.06483349609375,1.0418298244476318,0.9871574640274048,-0.30833399295806885
1770950144660802000,18.083802001953124,1.219591498374939,1.0488548278808594,-0.018173227086663246
1770950144679771000,18.10277099609375,1.1310161352157593,0.8949168920516968,0.049021899700164795
1770950144698739500,18.121739501953126,1.0338886976242065,0.8185588121414185,0.13515383005142212
1770950144717708000,18.1407080078125,1.1389573812484741,0.6120865345001221,0.37094762921333313
1770950144736676600,18.159676513671876,1.2764019966125488,0.18387030065059662,0.40515607595443726
1770950144755645400,18.1786455078125,1.3613121509552002,-0.29504770040512085,0.058795735239982605
1770950144774614000,18.197614013671874,1.305112600326538,-0.45998117327690125,-0.3565923273563385
1770950144793582800,18.216582763671877,1.1016945838928223,-0.25961753726005554,-0.5856665968894958
1770950144812551400,18.235551513671876,0.8640682101249695,0.09712749719619751,-0.7316632866859436
1770950144831520000,18.25452001953125,0.6502655744552612,0.4471530318260193,-0.8019127249717712
1770950144850488600,18.273488525390626,0.46456265449523926,0.7434224486351013,-0.7713695168495178
1770950144869457400,18.29245751953125,0.32528549432754517,0.8857539296150208,-0.708450436592102
1770950144888426000,18.311426025390624,0.324063777923584,0.8888082504272461,-0.6027708053588867
1770950144907394600,18.33039453125,0.48533207178115845,0.6921098232269287,-0.44761115312576294
1770950144926363400,18.34936328125,0.6863065958023071,0.28527384996414185,-0.2533561587333679
1770950144945332000,18.36833203125,0.7498365044593811,-0.26878049969673157,-0.02000582218170166
1770950144964300500,18.387300537109375,0.6740893125534058,-0.7990111112594604,0.16325360536575317
1770950144983269400,18.406269287109374,0.5250383019447327,-1.1404845714569092,0.2652680277824402
1770950145002238000,18.425238037109374,0.33078327775001526,-1.1368193626403809,0.2438877671957016
1770950145021206800,18.444206787109376,0.11453714966773987,-0.8045089244842529,0.0899498388171196
1770950145040175400,18.46317529296875,-0.10354158282279968,-0.35246896743774414,-0.09697478264570236
1770950145059144000,18.48214404296875,-0.314289927482605,-0.0873536616563797,-0.1977674663066864
1770950145078112800,18.50111279296875,-0.499381959438324,-0.10567960888147354,-0.19532401859760284
1770950145097081300,18.520081298828124,-0.5745183229446411,-0.1997527778148651,-0.09575305134057999
1770950145116050000,18.5390498046875,-0.4969384968280792,-0.28954991698265076,-0.02672533318400383
1770950145135018500,18.5580185546875,-0.3026835024356842,-0.3952295184135437,-0.10797034949064255
1770950145153987300,18.5769873046875,-0.2605338394641876,-0.5962040424346924,-0.2838993966579437
1770950145172956000,18.595955810546876,-0.4920515716075897,-0.8936951756477356,-0.3614792227745056
1770950145191924500,18.614924560546875,-0.8665117025375366,-1.1814124584197998,-0.3407098352909088
1770950145210893000,18.63389306640625,-1.0021237134933472,-1.32985258102417,-0.2386954128742218
1770950145229862000,18.65286181640625,-0.722347617149353,-1.5228859186172485,-0.01206457894295454
1770950145248830500,18.67183056640625,-0.1438586562871933,-1.6022982597351074,0.38988444209098816
1770950145267799300,18.69079931640625,0.4517345130443573,-1.390328288078308,0.8064942359924316
1770950145286767900,18.709767822265626,0.7382301092147827,-0.962722897529602,0.939662754535675
1770950145305736400,18.728736328125,0.5830704569816589,-0.5436696410179138,0.7386882305145264
1770950145324705000,18.747705078125,0.0974329337477684,-0.1692095398902893,0.3721693754196167
1770950145343673900,18.766673828125,-0.4150826036930084,0.1490510106086731,-0.024281874299049377
1770950145362642400,18.785642333984374,-0.6215549111366272,0.32620179653167725,-0.13729186356067657
1770950145381611000,18.804611083984376,-0.6221657991409302,0.3170388340950012,-0.0010690133785828948
1770950145400579800,18.823579833984375,-0.47372564673423767,0.17104214429855347,0.27320927381515503
1770950145419548200,18.842548095703126,-0.34238970279693604,0.0054977829568088055,0.5529853701591492
1770950145438517000,18.86151708984375,-0.2617555558681488,-0.06963858753442764,0.7020363211631775
1770950145457485600,18.880485595703124,-0.27397283911705017,-0.0054977829568088055,0.7020363211631775
1770950145476454100,18.8994541015625,-0.3588830530643463,0.13500112295150757,0.6299542784690857
1770950145495423000,18.918423095703126,-0.4615083336830139,0.2516762912273407,0.4839576184749603
1770950145514391600,18.9373916015625,-0.5635227560997009,0.328645259141922,0.30375251173973083
1770950145533360000,18.956360107421876,-0.6606502532958984,0.39339691400527954,0.12904518842697144
1770950145552328700,18.97532861328125,-0.7632755637168884,0.49602219462394714,-0.08109229803085327
1770950145571297500,18.994297607421874,-0.8225294351577759,0.7641918659210205,-0.19593487679958344
1770950145590266000,19.01326611328125,-0.7522799968719482,1.0122029781341553,-0.1409570425748825
1770950145609234700,19.032234619140624,-0.5225948095321655,1.0983349084854126,0.012370011769235134
1770950145628203300,19.051203369140627,-0.23365578055381775,0.8735366463661194,0.14431680738925934
1770950145647172000,19.070172119140626,0.048563748598098755,0.46059203147888184,0.25060728192329407
1770950145666140700,19.089140625,0.14141519367694855,-0.10323614627122879,0.18952079117298126
1770950145685109200,19.108109130859376,0.06383536756038666,-0.30604326725006104,0.04841103404760361
1770950145704078000,19.127078125,-0.06811141967773438,-0.017715077847242355,0.10338886082172394
1770950145723046400,19.14604638671875,-0.032681263983249664,0.28588470816612244,0.30863943696022034
1770950145742015200,19.16501513671875,0.231212317943573,0.08307760953903198,0.45097091794013977
1770950145760983800,19.18398388671875,0.5152644515037537,-0.4221075773239136,0.42103853821754456
1770950145779952400,19.202952392578126,0.6209440231323242,-0.758694052696228,0.25793763995170593
1770950145798921000,19.2219208984375,0.5390881896018982,-0.6401863098144531,0.13515383005142212
1770950145817889800,19.240889892578124,0.3607156574726105,-0.370184063911438,-0.02000582218170166
1770950145836858400,19.2598583984375,0.1279761642217636,-0.20891575515270233,-0.228921577334404
1770950145855827000,19.278826904296874,-0.1389717310667038,-0.22357651591300964,-0.49892380833625793
1770950145874795800,19.297795654296873,-0.36621344089508057,-0.2370155304670334,-0.754265308380127
1770950145893764000,19.31676416015625,-0.37720900774002075,-0.1905898153781891,-0.8043562173843384
1770950145912733000,19.33573291015625,-0.21960589289665222,-0.1185077652335167,-0.6760746240615845
1770950145931701500,19.354701416015626,0.08521563559770584,-0.06352993845939636,-0.4225656986236572
1770950145950670000,19.373670166015625,0.4883863925933838,0.009162971749901772,-0.02672533318400383
1770950145969639000,19.392638916015624,0.7400626540184021,-0.20219624042510986,0.3312414288520813
1770950145988607500,19.411607421875,0.785877525806427,-0.3799578845500946,0.48701193928718567
1770950146007576000,19.430576171875,0.6875283122062683,-0.4428769648075104,0.3990474045276642
1770950146026544600,19.449544677734377,0.49082985520362854,-0.2809978127479553,0.15958842635154724
1770950146045513200,19.46851318359375,0.2409861534833908,0.006108647678047419,-0.09086613357067108
1770950146064481800,19.487481689453126,-0.029626941308379173,0.3231474757194519,-0.1971566081047058
1770950146083450600,19.50645068359375,-0.21166464686393738,0.4667007029056549,-0.20448698103427887
1770950146102419200,19.525419189453125,-0.3026835024356842,0.4569268524646759,-0.2649625837802887
1770950146121387800,19.5443876953125,-0.3594939112663269,0.35735589265823364,-0.41706791520118713
1770950146140356600,19.563356689453126,-0.35766133666038513,0.33231043815612793,-0.6229293346405029
1770950146159325200,19.5823251953125,-0.16523891687393188,0.3958403766155243,-0.771980345249176
1770950146178293800,19.601293701171876,0.00946840364485979,0.49541133642196655,-0.8226821422576904
1770950146197262300,19.620262451171875,-0.06322450190782547,0.5925388336181641,-0.7353284955024719
1770950146216231000,19.63923095703125,-0.4627300798892975,0.5302306413650513,-0.5838339924812317
1770950146235199700,19.65819970703125,-0.7632755637168884,0.45937031507492065,-0.3926333487033844
1770950146254168300,19.677168212890624,-0.6710349321365356,0.2981020212173462,-0.12446369975805283
1770950146273137000,19.696136962890623,-0.32528549432754517,-0.006108647678047419,0.19990549981594086
1770950146292105500,19.71510546875,0.061391908675432205,-0.2974911332130432,0.4350884258747101
1770950146311074300,19.73407421875,0.3075704276561737,-0.40317076444625854,0.4399753510951996
1770950146330043000,19.75304296875,0.31490078568458557,-0.2626718580722809,0.34895649552345276
1770950146349011500,19.772011474609375,0.11026109009981155,-0.2003636509180069,0.3019199073314667
1770950146367980000,19.79097998046875,-0.16096286475658417,-0.2620609998703003,0.3068068325519562
1770950146386948600,19.809948486328125,-0.33139413595199585,-0.31642794609069824,0.32330018281936646
1770950146405917400,19.82891748046875,-0.34666576981544495,-0.3292561173439026,0.33490660786628723
1770950146424886000,19.847885986328127,-0.2886336147785187,-0.2974911332130432,0.31291547417640686
1770950146443854600,19.8668544921875,-0.23793183267116547,-0.20158538222312927,0.23594652116298676
1770950146462823200,19.8858232421875,-0.2611446976661682,-0.0824667438864708,0.0899498388171196
1770950146481791700,19.904791748046875,-0.33078327775001526,0.025045456364750862,-0.07559451460838318
1770950146500760600,19.923760498046875,-0.4059196412563324,0.16249002516269684,-0.18493930995464325
1770950146519729200,19.942729248046874,-0.4468475878238678,0.30054548382759094,-0.15745039284229279
1770950146538697700,19.96169775390625,-0.47372564673423767,0.3445277214050293,-0.04016435891389847
1770950146557666300,19.980666259765623,-0.5158752799034119,0.3695732057094574,-0.011453714221715927
1770950146576635100,19.99963525390625,-0.5781835317611694,0.41905322670936584,-0.02977965772151947
1770950146595603700,20.018603759765625,-0.620333194732666,0.4563159942626953,-0.01695149764418602
1770950146614572300,20.037572265625,-0.5684096813201904,0.42394015192985535,-0.007177661173045635
1770950146633540900,20.056540771484375,-0.3643808364868164,0.3347539007663727,0.022754713892936707
1770950146652509400,20.075509521484374,-0.09621120244264603,0.15210533142089844,0.028863361105322838
1770950146671478300,20.094478271484373,0.15546508133411407,0.1026252806186676,-0.004734201822429895
1770950146690446800,20.11344677734375,0.24342961609363556,0.047036588191986084,-0.1824958473443985
1770950146709415400,20.13241552734375,0.17623448371887207,0.1490510106086731,-0.48243045806884766
1770950146728384000,20.151384033203126,0.023518294095993042,0.33047783374786377,-0.7194460034370422
1770950146747352800,20.170352783203125,0.0668896958231926,0.40805765986442566,-0.6278162598609924
1770950146766321400,20.1893212890625,0.3179551064968109,-0.04153880476951599,-0.30711227655410767
1770950146785290000,20.2082900390625,0.5977311730384827,-0.6401863098144531,0.15592323243618011
1770950146804258800,20.2272587890625,0.7822123765945435,-1.0586286783218384,0.4326449930667877
1770950146823227400,20.246227294921876,0.6698132157325745,-0.9993748068809509,0.20540328323841095
1770950146842196000,20.265196044921876,0.4621191918849945,-0.5845975875854492,-0.24602578580379486
1770950146861164500,20.28416455078125,0.34788748621940613,-0.1997527778148651,-0.5618428587913513
1770950146880133000,20.303133056640625,0.34177884459495544,-0.007330377586185932,-0.6846266984939575
1770950146899101700,20.322101806640624,0.37232208251953125,0.056199558079242706,-0.5374082922935486
1770950146918070500,20.341070556640624,0.3075704276561737,-0.1081230640411377,-0.23991714417934418
1770950146937039000,20.3600390625,0.20250166952610016,-0.3274235129356384,0.05024362727999687
1770950146956007700,20.379007568359373,0.17806708812713623,-0.45875945687294006,0.23716825246810913
1770950146974976500,20.3979765625,0.28069236874580383,-0.4978547990322113,0.3159697949886322
1770950146993945000,20.416945068359375,0.4425715208053589,-0.48991355299949646,0.3098611533641815
1770950147012913700,20.43591357421875,0.5342012643814087,-0.3652971386909485,0.2176205813884735
1770950147031882200,20.45488232421875,0.48105600476264954,-0.18875721096992493,0.0844520553946495
1770950147050851000,20.47385107421875,0.282524973154068,-0.09834922850131989,0.025809036567807198
1770950147069819600,20.492819580078127,0.048563748598098755,-0.06597339361906052,0.042913250625133514
1770950147088788200,20.511788330078126,-0.07299833744764328,-0.046425722539424896,0.10888664424419403
1770950147107756800,20.5307568359375,-0.0870482325553894,0.003665188793092966,0.13515383005142212
1770950147126725400,20.549725341796876,-0.12064579129219055,0.02871064469218254,0.03252854943275452
1770950147145694200,20.568694091796875,-0.16829325258731842,0.053145237267017365,-0.14950916171073914
1770950147164662800,20.587662841796874,-0.15546508133411407,0.0769689604640007,-0.3211621642112732
1770950147183631400,20.60663134765625,-0.01802051067352295,0.04214967042207718,-0.43722647428512573
1770950147202600000,20.625599853515624,0.05406153202056885,0.06536252796649933,-0.5166388750076294
1770950147221568800,20.64456884765625,-0.11026109009981155,0.21441353857517242,-0.5184714794158936
1770950147240537300,20.663537353515625,-0.508544921875,0.2669478952884674,-0.48365217447280884
1770950147259506000,20.682505859375,-0.68386310338974,0.23884813487529755,-0.40118545293807983
1770950147278474800,20.701474853515624,-0.5164861679077148,-0.01588248461484909,-0.2484692484140396
1770950147297443300,20.720443359375,-0.16768237948417664,-0.25411975383758545,0.06856957077980042
1770950147316412000,20.739411865234374,0.2464839369058609,-0.3433060050010681,0.4027126133441925
1770950147335380500,20.75838037109375,0.43463030457496643,-0.2993237376213074,0.4741837978363037
1770950147354349000,20.77734912109375,0.3381136655807495,-0.18875721096992493,0.34345871210098267
1770950147373317600,20.796317626953126,0.04917461425065994,-0.13011419773101807,0.19685117900371552
1770950147392286500,20.815286376953125,-0.21960589289665222,-0.10873392969369888,0.11988221108913422
1770950147411255000,20.834255126953124,-0.3759872615337372,-0.07147117704153061,0.045967575162649155
1770950147430223600,20.8532236328125,-0.4364628791809082,0.05497783049941063,-0.024892739951610565
1770950147449192400,20.8721923828125,-0.4175260663032532,0.15760311484336853,-0.021227551624178886
1770950147468161000,20.8911611328125,-0.35094180703163147,0.1692095398902893,-0.001679878099821508
1770950147487129600,20.910129638671876,-0.3130682110786438,0.1026252806186676,-0.03222311660647392
1770950147506098200,20.92909814453125,-0.33200499415397644,0.0769689604640007,-0.07131846249103546
1770950147525067000,20.94806689453125,-0.3741546869277954,0.10384701192378998,-0.11591159552335739
1770950147544035600,20.96703564453125,-0.4364628791809082,0.19608759880065918,-0.10186170041561127
1770950147563004200,20.986004150390624,-0.4731147587299347,0.26939135789871216,0.03252854943275452
1770950147581972700,21.00497265625,-0.42424559593200684,0.28466299176216125,0.2493855506181717
1770950147600941300,21.02394140625,-0.33078327775001526,0.2522871494293213,0.4222602844238281
1770950147619910100,21.04291015625,-0.2629773020744324,0.22479823231697083,0.4387536346912384
1770950147638878700,21.061878662109375,-0.18173226714134216,0.2761108875274658,0.38988444209098816
1770950147657847300,21.080847412109375,-0.10415244847536087,0.25411975383758545,0.2890917658805847
1770950147676816000,21.09981591796875,-0.008246674202382565,0.1331685185432434,0.1101083755493164
1770950147695784700,21.11878466796875,0.035124726593494415,-0.03909534588456154,-0.10613775253295898
1770950147714753300,21.137753173828123,-0.015577051788568497,-0.06230820715427399,-0.2893971800804138
1770950147733721900,21.156721923828126,-0.09010255336761475,0.10690133273601532,-0.32788166403770447
1770950147752690400,21.1756904296875,-0.07910698652267456,0.08857539296150208,-0.11896591633558273
1770950147771659000,21.194658935546876,0.1438586562871933,0.001221729558892548,0.2994764447212219
1770950147790627800,21.2136279296875,0.3992001414299011,-0.2412915825843811,0.6183478832244873
1770950147809596400,21.232596435546874,0.664926290512085,-0.42821621894836426,0.6812669634819031
1770950147828565000,21.25156494140625,0.8610138893127441,-0.15515965223312378,0.41187557578086853
1770950147847533600,21.270533447265624,0.9844086170196533,0.205861434340477,-0.0951421856880188
1770950147866502100,21.289502197265627,0.9941824078559875,0.46608981490135193,-0.6009382009506226
1770950147885471000,21.308470947265626,0.8952223062515259,0.574212908744812,-0.7286089658737183
1770950147904439600,21.327439453125,0.6808087825775146,0.5839866995811462,-0.5661189556121826
1770950147923408100,21.346408203125,0.4425715208053589,0.554665207862854,-0.35537058115005493
1770950147942376700,21.365376708984375,0.22510367631912231,0.5009090900421143,-0.2234237939119339
1770950147961345500,21.384345458984374,0.1127045527100563,0.3536907136440277,-0.20143266022205353
1770950147980314000,21.403314208984376,0.1285870373249054,0.20280711352825165,-0.25763222575187683
1770950147999282700,21.42228271484375,0.22327107191085815,0.017715077847242355,-0.34376415610313416
1770950148018251300,21.441251220703126,0.3533852696418762,0.009162971749901772,-0.5178605914115906
1770950148037219800,21.4602197265625,0.34666576981544495,0.015271619893610477,-0.6473639607429504
1770950148056188400,21.4791884765625,0.17684535682201385,0.16187916696071625,-0.641866147518158
1770950148075157200,21.4981572265625,-0.08277218043804169,0.40378162264823914,-0.5031998753547668
1770950148094125800,21.517125732421874,-0.28557929396629333,0.5595521330833435,-0.29367324709892273
1770950148113094400,21.536094482421873,-0.3448331654071808,0.45387253165245056,-0.1519526094198227
1770950148132063000,21.55506298828125,-0.32589635252952576,0.2706131041049957,-0.13362666964530945
1770950148151031800,21.57403173828125,-0.2519817352294922,0.23335035145282745,-0.13973531126976013
1770950148170000400,21.59300048828125,-0.07849612087011337,0.2260199636220932,-0.031001387163996696
1770950148188969000,21.611968994140625,0.17867794632911682,0.07330377399921417,0.14370593428611755
1770950148207937500,21.6309375,0.27030766010284424,-0.14172062277793884,0.31719154119491577
1770950148226906000,21.649906005859375,0.07971785217523575,-0.11484257876873016,0.4992292523384094
1770950148245875000,21.668875,-0.22937972843647003,-0.0720820426940918,0.6537780165672302
1770950148264843300,21.68784326171875,-0.5244274139404297,-0.13439024984836578,0.6079631447792053
1770950148283812600,21.7068125,-0.610559344291687,-0.13561198115348816,0.4124864339828491
1770950148302780700,21.72578076171875,-0.476779967546463,-0.1594357043504715,0.26160284876823425
1770950148321749200,21.744749267578126,-0.18295399844646454,-0.18203771114349365,0.3068068325519562
1770950148340718000,21.763718017578125,0.12064579129219055,-0.25534147024154663,0.44669488072395325
1770950148359686400,21.782686279296875,0.29901832342147827,-0.43310311436653137,0.4815141558647156
1770950148378655200,21.8016552734375,0.28435754776000977,-0.27916520833969116,0.3019199073314667
1770950148397623800,21.820623779296874,0.05894844979047775,-0.10323614627122879,0.04474584385752678
1770950148416592400,21.83959228515625,-0.20799945294857025,-0.053145237267017365,0.023976443335413933
1770950148435561000,21.85856103515625,-0.28435754776000977,-0.11117739230394363,0.19929464161396027
1770950148454529500,21.877529541015626,-0.22266021370887756,-0.3084867000579834,0.43142324686050415
1770950148473498400,21.896498291015625,-0.12431098520755768,-0.3445277214050293,0.6647735834121704
1770950148492466700,21.915466796875,-0.10170898586511612,-0.13683371245861053,0.8345940113067627
1770950148511435500,21.934435546875,-0.18295399844646454,-0.013439024798572063,0.8394809365272522
1770950148530404000,21.953404052734374,-0.27030766010284424,-0.06719512492418289,0.7796161770820618
1770950148549372700,21.97237255859375,-0.3094030022621155,-0.10506874322891235,0.7405208349227905
1770950148568341200,21.99134130859375,-0.2764163017272949,-0.17348559200763702,0.6953168511390686
1770950148587309800,22.010309814453127,-0.2367101013660431,-0.25900667905807495,0.6372846961021423
1770950148606278700,22.029278564453126,-0.22876885533332825,-0.25961753726005554,0.5926915407180786
1770950148625247200,22.048247314453125,-0.28069236874580383,-0.15149445831775665,0.5474875569343567
1770950148644215800,22.0672158203125,-0.3588830530643463,0.08674279600381851,0.5071704983711243
1770950148663184400,22.086184326171875,-0.31551164388656616,0.2987128794193268,0.43142324686050415
1770950148682153000,22.105153076171874,-0.15485422313213348,0.31031930446624756,0.2237292230129242
1770950148701121500,22.12412158203125,0.09804379940032959,0.09590577334165573,-0.07131846249103546
1770950148720090000,22.143090087890624,0.25503605604171753,-0.2406807243824005,-0.4140135943889618
1770950148739058700,22.16205859375,0.23304490745067596,-0.3500255048274994,-0.6858484148979187
1770950148758027500,22.181027587890625,0.022907428443431854,-0.06963858753442764,-0.7579304575920105
1770950148776996000,22.19999609375,0.02779434807598591,0.17165300250053406,-0.5746710300445557
1770950148795964700,22.218964599609375,0.3631591200828552,0.12034036219120026,-0.18616104125976562
1770950148814933200,22.237933349609374,0.776103675365448,-0.1997527778148651,0.1718057245016098
1770950148833901800,22.25690185546875,1.0473276376724243,-0.43921178579330444,0.24755294620990753
1770950148852870400,22.275870361328124,1.0601558685302734,-0.3909534513950348,0.008093958720564842
1770950148871839000,22.2948388671875,0.9196569323539734,-0.1594357043504715,-0.36942046880722046
1770950148890807600,22.3138076171875,0.7327322959899902,0.05192350596189499,-0.6730202436447144
1770950148909776100,22.332776123046877,0.5623010396957397,0.1948658674955368,-0.7951932549476624
1770950148928745000,22.351744873046876,0.4474584460258484,0.30604326725006104,-0.7463240623474121
1770950148947713300,22.37071337890625,0.42363473773002625,0.347582072019577,-0.5795579552650452
1770950148966682000,22.38968212890625,0.4731147587299347,0.3384190797805786,-0.3584249019622803
1770950148985650700,22.408650634765625,0.5329795479774475,0.23029601573944092,-0.16355904936790466
1770950149004619300,22.427619384765624,0.5800161361694336,0.0665842592716217,-0.04566214233636856
1770950149023587800,22.446587890625,0.5928442478179932,-0.07819069176912308,-0.013897174037992954
1770950149042556400,22.465556396484374,0.5293143391609192,-0.11117739230394363,-0.03527744114398956
1770950149061525000,22.48452490234375,0.40897396206855774,-0.01649334840476513,-0.04199695214629173
1770950149080493600,22.50349365234375,0.24526220560073853,0.04153880476951599,-0.07070759683847427
1770950149099462100,22.522462158203126,0.0668896958231926,0.11606431007385254,-0.10369429737329483
1770950149118430700,22.5414306640625,-0.12125665694475174,0.10201441496610641,-0.228921577334404
1770950149137399300,22.5603994140625,-0.3344484567642212,0.07574722915887833,-0.4286743700504303
1770950149156368000,22.579367919921875,-0.5238165259361267,0.22174391150474548,-0.5325213670730591
1770950149175336400,22.59833642578125,-0.5568032264709473,0.3127627670764923,-0.5471821427345276
1770950149194305000,22.617304931640625,-0.4303542375564575,0.27916520833969116,-0.5850557684898376
1770950149213273600,22.636273681640624,-0.19822561740875244,0.24556763470172882,-0.6827940940856934
1770950149232242200,22.6552421875,-0.019242240116000175,0.38667741417884827,-0.7365502119064331
1770950149251210800,22.674210693359374,0.10415244847536087,0.6090322136878967,-0.6730202436447144
1770950149270179300,22.693179443359377,0.07788526266813278,0.6359102129936218,-0.5502364635467529
1770950149289148000,22.71214794921875,-0.15057817101478577,0.5595521330833435,-0.3559814393520355
1770950149308116500,22.731116455078126,-0.24831652641296387,0.3396408259868622,-0.16355904936790466
1770950149327085000,22.7500849609375,-0.022296564653515816,0.08124501258134842,0.07406735420227051
1770950149346053600,22.7690537109375,0.43340855836868286,-0.08063415437936783,0.34956738352775574
1770950149365022200,22.788022216796875,0.7699950337409973,-0.10079269111156464,0.5120574235916138
1770950149383990800,22.80699072265625,0.8365793228149414,0.015271619893610477,0.49250972270965576
1770950149402959400,22.82595947265625,0.6783653497695923,0.16737695038318634,0.3611738085746765
1770950149421928000,22.844927978515624,0.40775224566459656,0.2522871494293213,0.2084576040506363
1770950149440896500,22.863896484375,0.168904110789299,0.25350889563560486,0.1357647031545639
1770950149459865000,22.882864990234374,0.05589412897825241,0.14233149588108063,0.1773035079240799
1770950149478833700,22.901833740234373,0.05833758786320686,-0.018325943499803543,0.3013090491294861
1770950149497802200,22.92080224609375,0.09132428467273712,-0.1484401375055313,0.48273590207099915
1770950149516770800,22.939770751953127,0.0717766135931015,-0.2620609998703003,0.6409498453140259
1770950149535739400,22.958739501953126,-0.011911863461136818,-0.33536475896835327,0.6959276795387268
1770950149554708000,22.9777080078125,-0.10965022444725037,-0.39767298102378845,0.6067414283752441
1770950149573676500,22.996676513671876,-0.2159406989812851,-0.3909534513950348,0.43631017208099365
1770950149592645000,23.01564501953125,-0.3026835024356842,-0.2993237376213074,0.3006981909275055
1770950149611613700,23.03461376953125,-0.35705047845840454,-0.18387030065059662,0.22250749170780182
1770950149630582300,23.053582275390625,-0.3961458206176758,-0.0054977829568088055,0.19929464161396027
1770950149649550800,23.07255078125,-0.4370737373828888,0.13500112295150757,0.16814053058624268
1770950149668519400,23.09151953125,-0.45051276683807373,0.24312418699264526,0.12965604662895203
1770950149687488000,23.110488037109373,-0.3790415823459625,0.2993237376213074,0.08200860023498535
1770950149706456600,23.12945654296875,-0.210442915558815,0.3402516841888428,0.02458730712532997
1770950149725425200,23.148425048828123,0.16646064817905426,0.5296197533607483,-0.011453714221715927
1770950149744393500,23.1673935546875,0.581848680973053,0.6120865345001221,-0.11835505068302155
1770950149763362000,23.186362060546877,0.7150171995162964,0.6053670048713684,-0.29306238889694214
1770950149782330600,23.20533056640625,0.5342012643814087,0.6688969135284424,-0.2893971800804138
1770950149801299200,23.22429931640625,0.4425715208053589,0.7360920310020447,0.0025961752980947495
1770950149820267800,23.243267822265626,0.6557633280754089,0.5467239618301392,0.3611738085746765
1770950149839236400,23.262236328125,1.0693187713623047,0.16126830875873566,0.5749764442443848
1770950149858205000,23.281204833984376,1.4077378511428833,-0.26511532068252563,0.4949531853199005
1770950149877173500,23.300173583984375,1.4278963804244995,-0.3481929302215576,0.24083344638347626
1770950149896142000,23.31914208984375,1.214093804359436,-0.11178825795650482,-0.002901607658714056
1770950149915110700,23.338110595703125,0.9502001404762268,0.2107483446598053,-0.10125083476305008
1770950149934079200,23.357079345703124,0.7877101302146912,0.40378162264823914,-0.1000291109085083
1770950149953047600,23.376047607421874,0.7437278628349304,0.4214966893196106,-0.08109229803085327
1770950149972016000,23.39501611328125,0.805425226688385,0.46486809849739075,-0.08659008145332336
1770950149990984700,23.413984619140624,0.9092722535133362,0.4630354940891266,-0.0798705667257309
1770950150009953300,23.432953369140623,0.9758564829826355,0.3585776388645172,-0.031001387163996696
1770950150028921900,23.451921875,0.9599739909172058,0.17165300250053406,-0.021227551624178886
1770950150047890400,23.470890380859377,0.8720094561576843,-0.05558869615197182,-0.10980294644832611
1770950150066859000,23.48985888671875,0.7370083332061768,-0.1893680840730667,-0.2087630331516266
1770950150085827300,23.508827392578127,0.5946768522262573,-0.24251331388950348,-0.21670427918434143
1770950150104796000,23.5277958984375,0.40836310386657715,-0.3243691921234131,-0.19837833940982819
1770950150123764500,23.546764404296876,0.1701258420944214,-0.2571740746498108,-0.16539163887500763
