time,seconds_elapsed,z,y,x
1770950126810851000,0.23385107421875,0.2822195291519165,0.2406807243824005,-0.4202749729156494
1770950126829820400,0.2528203125,0.6768381595611572,0.0824667438864708,-0.4428769648075104
1770950126848790000,0.2717900390625,0.7348703145980835,-0.16798780858516693,-0.9395100474357605
1770950126867759400,0.29075927734375,0.5332849621772766,-0.25045454502105713,-1.6059634685516357
1770950126886729000,0.30972900390625,0.4685332775115967,0.06108647957444191,-1.868024468421936
1770950126905697500,0.328697509765625,0.5332849621772766,0.370184063911438,-1.655443549156189
1770950126924668000,0.34766796875,0.5345066785812378,0.4612029194831848,-1.026863694190979
1770950126943637500,0.366637451171875,0.46059203147888184,0.3610210716724396,-0.258395791053772
1770950126962607000,0.385607177734375,0.43860089778900146,-0.012217295356094837,0.360410213470459
1770950126981576400,0.404576416015625,0.4923570156097412,-0.27916520833969116,0.8240565657615662
1770950127000546000,0.423546142578125,0.583375871181488,-0.4196641147136688,1.0775654315948486
1770950127019515600,0.442515625,0.6078104376792908,-0.5076286196708679,1.0372483730316162
1770950127038485000,0.461485107421875,0.4923570156097412,-0.5332849621772766,0.8087849617004395
1770950127057454600,0.48045458984375,0.29626941680908203,-0.48502662777900696,0.6407971382141113
1770950127076424200,0.499424072265625,0.05253437161445618,-0.48441576957702637,0.5302306413650513
1770950127095393800,0.518393798828125,-0.22724169492721558,-0.6175842881202698,0.3842339515686035
1770950127114363100,0.537363037109375,-0.3848448097705841,-0.6969966888427734,0.31581708788871765
1770950127133332700,0.556332763671875,-0.5760455131530762,-0.7116574645042419,0.08674279600381851
1770950127152302300,0.57530224609375,-1.053130865097046,-0.7159335017204285,-0.41783151030540466
1770950127171271700,0.594271728515625,-1.6249003410339355,-0.7104357481002808,-0.8295543789863586
1770950127190241300,0.6132412109375,-1.803883671760559,-0.6084213256835938,-0.8582650423049927
1770950127209211000,0.6322109375,-1.3683371543884277,-0.5064069032669067,-0.5577195286750793
1770950127228180200,0.65118017578125,-0.5412262082099915,-0.4410443603992462,-0.1490510106086731
1770950127247149800,0.67014990234375,0.2864955961704254,-0.2559523284435272,0.1637117564678192
1770950127266119400,0.689119384765625,0.5937605500221252,-0.2003636509180069,0.21807873249053955
1770950127285089000,0.708089111328125,0.4514290690422058,-0.20158538222312927,0.008552107028663158
1770950127304058400,0.727058349609375,-0.002443459117785096,-0.1698204129934311,-0.3341430425643921
1770950127323028000,0.746028076171875,-0.48930269479751587,-0.10629047453403473,-0.5204567909240723
1770950127341997600,0.76499755859375,-0.860708475112915,-0.08429934084415436,-0.43371400237083435
1770950127360967000,0.783966796875,-0.9474512934684753,-0.0873536616563797,-0.12705987691879272
1770950127379936500,0.8029365234375,-0.8814778923988342,-0.059864748269319534,0.2626718580722809
1770950127398906000,0.821906005859375,-0.7275399565696716,-0.031154103577136993,0.6346884965896606
1770950127417875500,0.84087548828125,-0.618806004524231,-0.06841685622930527,0.8124501705169678
1770950127436845000,0.859844970703125,-0.5424479246139526,-0.16065743565559387,0.8142827749252319
1770950127455814700,0.878814697265625,-0.5045742988586426,-0.21502439677715302,0.7147117853164673
1770950127474784300,0.8977841796875,-0.4770853817462921,-0.2003636509180069,0.545502245426178
1770950127493753600,0.916753662109375,-0.48013970255851746,-0.1588248461484909,0.3451386094093323
1770950127512723200,0.93572314453125,-0.5259546041488647,-0.15271618962287903,0.1893680840730667
1770950127531692800,0.95469287109375,-0.5992583632469177,-0.04276053607463837,0.17715078592300415
1770950127550662400,0.973662353515625,-0.6255255341529846,0.18814635276794434,0.2926042377948761
1770950127569632000,0.992632080078125,-0.5314523577690125,0.3231474757194519,0.35063639283180237
1770950127588601300,1.011601318359375,-0.34574946761131287,0.27488914132118225,0.2571740746498108
1770950127607571000,1.030571044921875,-0.17226386070251465,0.16249002516269684,0.06475166976451874
1770950127626540500,1.04954052734375,0.07819069176912308,0.1954767256975174,-0.03176496922969818
1770950127645510100,1.06851025390625,0.3182605504989624,0.049480047076940536,-0.03176496922969818
1770950127683449000,1.106448974609375,0.1331685185432434,-0.28038692474365234,-0.13072505593299866
1770950127702418700,1.125418701171875,0.026878049597144127,-0.2162461280822754,-0.017715077847242355
1770950127721388300,1.14438818359375,0.3225366175174713,-0.1899789422750473,0.29016077518463135
1770950127740357600,1.163357666015625,0.6957749724388123,-0.36774060130119324,0.48930269479751587
1770950127759327200,1.1823271484375,0.7550288438796997,-0.5308414697647095,0.4196641147136688
1770950127778296800,1.201296875,0.4563159942626953,-0.5400044918060303,0.08857539296150208
1770950127797266400,1.220266357421875,0.03787361457943916,-0.35246896743774414,-0.28038692474365234
1770950127816235800,1.23923583984375,-0.2003636509180069,-0.06780599057674408,-0.44470956921577454
1770950127835205400,1.258205322265625,-0.2009745091199875,0.14172062277793884,-0.34147340059280396
1770950127854175000,1.277175048828125,-0.08368847519159317,0.1637117564678192,-0.09101885557174683
1770950127873144600,1.29614453125,-0.001832594396546483,0.07574722915887833,0.09468404203653336
1770950127892114200,1.3151142578125,-0.001221729558892548,0.023212861269712448,0.15699224174022675
1770950127911083500,1.33408349609375,-0.031154103577136993,-0.03909534588456154,0.10567960888147354
1770950127930053000,1.35305322265625,0.04214967042207718,-0.16249002516269684,-0.004886918235570192
1770950127949022700,1.372022705078125,0.22479823231697083,-0.2614501118659973,-0.09040798991918564
1770950127967992300,1.390992431640625,0.33047783374786377,-0.2809978127479553,-0.10995566099882126
1770950127986962000,1.4099619140625,0.27916520833969116,-0.21197007596492767,-0.1130099818110466
1770950128005931500,1.428931640625,0.10751219838857651,-0.10629047453403473,-0.11423171311616898
1770950128024900900,1.44790087890625,-0.06352993845939636,-0.0360410213470459,-0.10751219838857651
1770950128043870500,1.466870361328125,-0.15638138353824615,-0.06414080411195755,-0.10140355676412582
1770950128062840000,1.485840087890625,-0.164322629570961,-0.15577052533626556,-0.08857539296150208
1770950128081809400,1.504809326171875,-0.1539379209280014,-0.1893680840730667,-0.10690133273601532
1770950128100779000,1.523779052734375,-0.13439024984836578,-0.1997527778148651,-0.18570289015769958
1770950128119748600,1.54274853515625,-0.0824667438864708,-0.13500112295150757,-0.2162461280822754
1770950128138718200,1.56171826171875,0.000610864779446274,-0.03543015569448471,-0.15760311484336853
1770950128157687800,1.580687744140625,0.027488915249705315,-0.003665188793092966,-0.03909534588456154
1770950128176657400,1.599657470703125,-0.17043127119541168,-0.023212861269712448,-0.03298669680953026
1770950128195627000,1.618626953125,-0.5809323787689209,-0.16249002516269684,-0.21868959069252014
1770950128214596400,1.637596435546875,-0.8741474747657776,-0.3042106628417969,-0.38240134716033936
1770950128233566000,1.65656591796875,-0.8210022449493408,-0.21685700118541718,-0.2675587832927704
1770950128252535600,1.67553564453125,-0.5296197533607483,0.09834922850131989,0.047036588191986084
1770950128271505200,1.694505126953125,-0.29077163338661194,0.26939135789871216,0.21319180727005005
1770950128290474800,1.713474853515625,-0.23762640357017517,0.16187916696071625,0.13622283935546875
1770950128309444000,1.732444091796875,-0.29993459582328796,-0.007941242307424545,0.06841685622930527
1770950128328413700,1.75141357421875,-0.38789913058280945,-0.15088360011577606,0.13133592903614044
1770950128347383300,1.77038330078125,-0.4868592321872711,-0.16249002516269684,0.2419024556875229
1770950128366353000,1.789352783203125,-0.5308414697647095,-0.056199558079242706,0.3610210716724396
1770950128385322500,1.808322509765625,-0.4581485986709595,0.012217295356094837,0.4355465769767761
1770950128404292000,1.8272919921875,-0.35735589265823364,-0.03543015569448471,0.4770853817462921
1770950128423261700,1.84626171875,-0.3451386094093323,-0.07391463965177536,0.49418962001800537
1770950128442231000,1.86523095703125,-0.45448338985443115,-0.053756099194288254,0.47097674012184143
1770950128461200600,1.88420068359375,-0.5925388336181641,-0.0360410213470459,0.4312705397605896
1770950128480170200,1.903170166015625,-0.6395754218101501,-0.01282816007733345,0.389120876789093
1770950128499139800,1.922139892578125,-0.6023126840591431,0.025045456364750862,0.3481929302215576
1770950128518109400,1.941109375,-0.5210676789283752,0.02932151034474373,0.35674503445625305
1770950128537078800,1.960078857421875,-0.4367683231830597,-0.012217295356094837,0.4111120104789734
1770950128556048400,1.97904833984375,-0.4001164436340332,-0.06963858753442764,0.4159989058971405
1770950128575018000,1.99801806640625,-0.4056142270565033,-0.10079269111156464,0.3549124300479889
1770950128593987600,2.016987548828125,-0.39400777220726013,-0.04886918142437935,0.26878049969673157
1770950128612957200,2.035957275390625,-0.3543015718460083,0.021991131827235222,0.1692095398902893
1770950128631926800,2.0549267578125,-0.31642794609069824,0.01588248461484909,0.05925388261675835
1770950128650896400,2.073896484375,-0.2816086709499359,-0.0665842592716217,-0.020158538594841957
1770950128669866000,2.092865966796875,-0.164322629570961,0.004276053514331579,0.047036588191986084
1770950128688835600,2.111835693359375,-0.08307760953903198,0.10323614627122879,0.0922405794262886
1770950128707805000,2.130804931640625,-0.10629047453403473,0.12461641430854797,-0.08429934084415436
1770950128726774500,2.1497744140625,-0.26939135789871216,0.039706211537122726,-0.4514290690422058
1770950128745744100,2.168744140625,-0.3390299379825592,0.06963858753442764,-0.7324268817901611
1770950128764713700,2.187713623046875,-0.06230820715427399,0.2162461280822754,-0.6462949514389038
1770950128783683300,2.206683349609375,0.44898560643196106,0.10445787757635117,-0.3084867000579834
1770950128802653000,2.22565283203125,0.7953459620475769,-0.1740964651107788,-0.004276053514331579
1770950128821622300,2.244622314453125,0.7733548283576965,-0.30543237924575806,0.021380268037319183
1770950128840592000,2.263591796875,0.5186241865158081,-0.16004657745361328,-0.30970844626426697
1770950128859561500,2.2825615234375,0.20769402384757996,0.0769689604640007,-0.7880155444145203
1770950128878531000,2.301531005859375,0.023212861269712448,0.32131487131118774,-1.062904715538025
1770950128897500700,2.320500732421875,0.03909534588456154,0.6414080262184143,-0.9993748068809509
1770950128916470300,2.33947021484375,0.15088360011577606,0.8368847370147705,-0.730594277381897
1770950128935439600,2.358439697265625,0.2657261788845062,0.7660244107246399,-0.43432486057281494
1770950128954409200,2.3774091796875,0.31154105067253113,0.3915643095970154,-0.2608392536640167
1770950128973378800,2.39637890625,0.34147340059280396,-0.0054977829568088055,-0.1637117564678192
1770950128992348400,2.415348388671875,0.39339691400527954,-0.143553227186203,-0.040317077189683914
1770950129011318000,2.434318115234375,0.42394015192985535,-0.08552107214927673,0.07513637095689774
1770950129030287600,2.45328759765625,0.3903425931930542,0.12034036219120026,0.12278381735086441
1770950129049257200,2.47225732421875,0.29504770040512085,0.27550002932548523,0.08979712426662445
1770950129068226800,2.491226806640625,0.20708316564559937,0.3995055556297302,0.040317077189683914
1770950129087196400,2.510196533203125,0.20830489695072174,0.3756818473339081,-0.007941242307424545
1770950129106165800,2.529165771484375,0.31459537148475647,0.21319180727005005,-0.001832594396546483
1770950129125135400,2.54813525390625,0.42943793535232544,0.10567960888147354,0.05558869615197182
1770950129144105000,2.56710498046875,0.5119046568870544,0.10567960888147354,0.1185077652335167
1770950129163074600,2.586074462890625,0.5418370366096497,0.13561198115348816,0.1288924664258957
1770950129182044200,2.605044189453125,0.5186241865158081,0.10323614627122879,0.07086031138896942
1770950129201013800,2.624013671875,0.4838049113750458,0.002443459117785096,0.02871064469218254
1770950129219983400,2.6429833984375,0.47036588191986084,0.010384701192378998,0.10995566099882126
1770950129238953000,2.661952880859375,0.41294458508491516,0.11972949653863907,0.22418737411499023
1770950129257922300,2.68092236328125,0.16065743565559387,0.2919933497905731,0.24373504519462585
1770950129276892000,2.699891845703125,-0.30543237924575806,0.43004879355430603,0.11423171311616898
1770950129295861500,2.718861572265625,-0.7464767694473267,0.38850998878479004,-0.05803215503692627
1770950129314831000,2.7378310546875,-0.7990111112594604,0.35246896743774414,-0.02626718580722809
1770950129333800700,2.75680078125,-0.4880809485912323,0.3182605504989624,0.18387030065059662
1770950129352770300,2.775770263671875,-0.1740964651107788,0.1233946830034256,0.2981020212173462
1770950129371739600,2.79473974609375,-0.16187916696071625,-0.23457208275794983,0.10384701192378998
1770950129390709200,2.813709228515625,-0.3127627670764923,-0.49418962001800537,-0.21868959069252014
1770950129409678800,2.832678955078125,-0.4257727563381195,-0.5430588126182556,-0.42271843552589417
1770950129428648400,2.8516484375,-0.48441576957702637,-0.43982264399528503,-0.5345066785812378
1770950129447618000,2.8706181640625,-0.5387827157974243,-0.328645259141922,-0.5137372612953186
1770950129466587600,2.889587646484375,-0.6102539300918579,-0.2406807243824005,-0.2877173125743866
1770950129485557200,2.90855712890625,-0.6493492722511292,-0.21807873249053955,0.008552107028663158
1770950129504526600,2.927526611328125,-0.6438514590263367,-0.2968802750110626,0.21319180727005005
1770950129523496200,2.94649609375,-0.6065887212753296,-0.35796675086021423,0.26878049969673157
1770950129542465800,2.9654658203125,-0.56382817029953,-0.3970620930194855,0.20463970303535461
1770950129561435400,2.984435302734375,-0.5241219997406006,-0.38301220536231995,0.11545344442129135
1770950129580405000,3.003405029296875,-0.47464191913604736,-0.3964512348175049,0.0513126403093338
1770950129599374600,3.02237451171875,-0.45448338985443115,-0.3756818473339081,0.021380268037319183
1770950129618344200,3.04134423828125,-0.4465421438217163,-0.20769402384757996,0.07513637095689774
1770950129637313800,3.060313720703125,-0.4428769648075104,0.007330377586185932,0.14477495849132538
1770950129656283100,3.079283203125,-0.41905322670936584,0.13133592903614044,0.14233149588108063
1770950129675252700,3.098252685546875,-0.42943793535232544,0.10934479534626007,0.015271619893610477
1770950129694222300,3.117222412109375,-0.42088583111763,0.08918625861406326,-0.09040798991918564
1770950129722676700,3.1456767578125,-0.16126830875873566,-0.001221729558892548,-0.028099779039621353
1770950129741646000,3.16464599609375,0.2565632164478302,0.24984370172023773,0.2779434621334076
1770950129760615700,3.18361572265625,0.5210676789283752,0.4471530318260193,0.430659681558609
1770950129779585300,3.202585205078125,0.49052441120147705,0.3445277214050293,0.26878049969673157
1770950129798555000,3.221554931640625,0.22174391150474548,0.2932150959968567,0.06841685622930527
1770950129817524500,3.2405244140625,0.014660755172371864,0.1282816082239151,0.031154103577136993
1770950129836494000,3.259494140625,0.03543015569448471,-0.1649334877729416,0.11423171311616898
1770950129855463700,3.278463623046875,0.1899789422750473,-0.4196641147136688,0.2101374864578247
1770950129874433300,3.297433349609375,0.3335321843624115,-0.5711585879325867,0.21685700118541718
1770950129893402600,3.316402587890625,0.3799578845500946,-0.5302306413650513,0.143553227186203
1770950129912372200,3.335372314453125,0.2779434621334076,-0.3182605504989624,-0.000610864779446274
1770950129931341800,3.354341796875,0.10201441496610641,0.012217295356094837,-0.19364413619041443
1770950129950311200,3.373311279296875,-0.008552107028663158,0.30970844626426697,-0.34636032581329346
1770950129969280800,3.39228076171875,-0.010384701192378998,0.4367683231830597,-0.4269944727420807
1770950129988250400,3.41125048828125,0.08368847519159317,0.43004879355430603,-0.37323838472366333
1770950130007220000,3.430219970703125,0.24984370172023773,0.28038692474365234,-0.17104214429855347
1770950130026189600,3.449189453125,0.4202749729156494,0.004276053514331579,0.0824667438864708
1770950130045159200,3.4681591796875,0.5180133581161499,-0.2571740746498108,0.29626941680908203
1770950130064128800,3.487128662109375,0.5033525824546814,-0.41233372688293457,0.40317076444625854
1770950130083098000,3.50609814453125,0.36774060130119324,-0.4770853817462921,0.33658650517463684
1770950130102067700,3.525067626953125,0.12156209349632263,-0.481361448764801,0.15577052533626556
1770950130121037300,3.544037353515625,-0.13927717506885529,-0.42332929372787476,0.023212861269712448
1770950130140007000,3.5630068359375,-0.32070401310920715,-0.2657261788845062,0.017715077847242355
1770950130158976500,3.5819765625,-0.3842339515686035,-0.1588248461484909,0.09834922850131989
1770950130177945900,3.60094580078125,-0.40866854786872864,-0.16859868168830872,0.16554436087608337
1770950130196915500,3.61991552734375,-0.4508182108402252,-0.16737695038318634,0.17776164412498474
1770950130215885000,3.638885009765625,-0.4874700903892517,-0.12400554865598679,0.1802051067352295
1770950130234854400,3.6578544921875,-0.49663305282592773,-0.08124501258134842,0.17348559200763702
1770950130253824000,3.676823974609375,-0.4257727563381195,-0.13622283935546875,0.1178968995809555
1770950130272793600,3.695793701171875,-0.4453204274177551,-0.3017672002315521,-0.023212861269712448
1770950130291763200,3.71476318359375,-0.6334667801856995,-0.2620609998703003,-0.20830489695072174
1770950130310732800,3.73373291015625,-0.9975422024726868,-0.23273947834968567,-0.4569268524646759
1770950130329702100,3.7527021484375,-1.1209368705749512,-0.21685700118541718,-0.5467239618301392
1770950130348671700,3.771671630859375,-0.7513636946678162,-0.31093016266822815,-0.3396408259868622
1770950130367641300,3.790641357421875,-0.10079269111156464,-0.34208428859710693,0.10995566099882126
1770950130386611000,3.80961083984375,0.5907062292098999,-0.20402882993221283,0.45875945687294006
1770950130405580300,3.828580322265625,0.8277217745780945,-0.04520399495959282,0.4172206521034241
1770950130424550000,3.8475498046875,0.6707295179367065,0.23762640357017517,0.10445787757635117
1770950130443519500,3.86651953125,0.2565632164478302,0.4416552484035492,-0.22846342623233795
1770950130462489000,3.885489013671875,-0.21380266547203064,0.47097674012184143,-0.37629270553588867
1770950130481458700,3.904458740234375,-0.5564978122711182,0.3543015718460083,-0.2632827162742615
1770950130500428000,3.923427978515625,-0.7031053900718689,0.1337793916463852,-0.02871064469218254
1770950130519397600,3.942397705078125,-0.6524035930633545,-0.0824667438864708,0.17287473380565643
1770950130538367200,3.9613671875,-0.5009090900421143,-0.21319180727005005,0.26389357447624207
1770950130557336800,3.9803369140625,-0.36163195967674255,-0.2009745091199875,0.2565632164478302
1770950130576306200,3.99930615234375,-0.2974911332130432,-0.06108647957444191,0.2156352698802948
1770950130595275800,4.01827587890625,-0.31581708788871765,0.11056652665138245,0.17348559200763702
1770950130614245400,4.037245361328125,-0.39889469742774963,0.22724169492721558,0.17043127119541168
1770950130633214700,4.056214599609375,-0.4874700903892517,0.3084867000579834,0.25900667905807495
1770950130652184300,4.075184326171875,-0.4673115611076355,0.3481929302215576,0.3530798554420471
1770950130671154000,4.09415380859375,-0.32681265473365784,0.360410213470459,0.39278605580329895
1770950130690123300,4.113123291015625,-0.18325942754745483,0.35735589265823364,0.32009315490722656
1770950130709092900,4.1320927734375,-0.06230820715427399,0.3536907136440277,0.185092031955719
1770950130728062500,4.1510625,0.04886918142437935,0.35185810923576355,0.08307760953903198
1770950130747031800,4.17003173828125,0.1698204129934311,0.26022839546203613,-0.03298669680953026
1770950130766001400,4.18900146484375,0.30970844626426697,0.15638138353824615,-0.14599667489528656
1770950130784970800,4.207970703125,0.4056142270565033,-0.047036588191986084,-0.23518294095993042
1770950130803940400,4.2269404296875,0.3396408259868622,-0.12950333952903748,-0.22296564280986786
1770950130822910000,4.245909912109375,0.15088360011577606,-0.23457208275794983,-0.0977383628487587
1770950130841879600,4.264879638671875,0.19303326308727264,-0.06108647957444191,0.2571740746498108
1770950130860849000,4.283848876953125,0.5601630210876465,0.1899789422750473,0.5681042671203613
1770950130879818500,4.302818603515625,0.9089667797088623,0.0360410213470459,0.4465421438217163
1770950130898787800,4.321787841796875,0.8759800791740417,-0.31459537148475647,0.000610864779446274
1770950130917757400,4.34075732421875,0.5320632457733154,-0.4196641147136688,-0.4147771894931793
1770950130936727000,4.35972705078125,0.24434591829776764,-0.09468404203653336,-0.5070177912712097
1770950130955696400,4.3786962890625,0.1905898153781891,0.33536475896835327,-0.35185810923576355
1770950130974666000,4.397666015625,0.3072649836540222,0.5522217750549316,-0.18081597983837128
1770950130993635600,4.416635498046875,0.4068359434604645,0.535728394985199,-0.12461641430854797
1770950131012605000,4.43560498046875,0.4159989058971405,0.39767298102378845,-0.1802051067352295
1770950131031574500,4.454574462890625,0.3646862804889679,0.23762640357017517,-0.2577849328517914
1770950131050544000,4.473544189453125,0.32681265473365784,0.047036588191986084,-0.28954991698265076
1770950131069513500,4.492513427734375,0.33536475896835327,-0.18875721096992493,-0.2620609998703003
1770950131088483000,4.511483154296875,0.3695732057094574,-0.31154105067253113,-0.1637117564678192
1770950131107452700,4.53045263671875,0.3536907136440277,-0.3133736252784729,-0.009773836471140385
1770950131126422000,4.549422119140625,0.25900667905807495,-0.2571740746498108,0.07757982611656189
1770950131145391600,4.5683916015625,0.1081230640411377,-0.2364046722650528,0.04825831577181816
1770950131164361000,4.58736083984375,-0.04276053607463837,-0.20341797173023224,-0.008552107028663158
1770950131183330600,4.60633056640625,-0.14172062277793884,-0.06719512492418289,0.0030543238390237093
1770950131202300200,4.625300048828125,-0.17226386070251465,0.004886918235570192,0.039706211537122726
1770950131221269500,4.64426953125,-0.164322629570961,-0.028099779039621353,0.03909534588456154
1770950131240239000,4.663239013671875,-0.15149445831775665,-0.06719512492418289,-0.0360410213470459
1770950131259208400,4.68220849609375,-0.1795942485332489,0.027488915249705315,-0.12767073512077332
1770950131278178000,4.701177978515625,-0.22846342623233795,0.10751219838857651,-0.24312418699264526
1770950131297147400,4.7201474609375,-0.14049890637397766,0.14599667489528656,-0.277332603931427
1770950131316117000,4.739116943359375,-0.014049889519810677,0.1178968995809555,-0.15210533142089844
1770950131335086300,4.75808642578125,0.04276053607463837,0.14294235408306122,0.02260199747979641
1770950131354056000,4.777055908203125,-0.08857539296150208,0.09957095980644226,0.04214967042207718
1770950131373025300,4.796025390625,-0.29077163338661194,0.09529490768909454,-0.03848448023200035
1770950131391995000,4.814994873046875,-0.22785256803035736,0.1637117564678192,-0.02871064469218254
1770950131410964200,4.833964111328125,0.13072505593299866,0.16737695038318634,0.07024945318698883
1770950131429933800,4.852933837890625,0.5296197533607483,0.05070177838206291,0.04459312930703163
1770950131448903200,4.871903076171875,0.6249146461486816,-0.17531819641590118,-0.24862197041511536
1770950131467872800,4.890872802734375,0.41355544328689575,-0.21135921776294708,-0.66645348072052
1770950131486842000,4.909842041015625,0.11484257876873016,0.0409279391169548,-0.9132428169250488
1770950131505811700,4.928811767578125,-0.05192350596189499,0.3298669755458832,-0.8857539296150208
1770950131524781300,4.94778125,-0.0360410213470459,0.43982264399528503,-0.6462949514389038
1770950131543750700,4.966750732421875,0.06719512492418289,0.30115634202957153,-0.3121519088745117
1770950131562720300,4.98572021484375,0.16310089826583862,0.10995566099882126,0.01649334840476513
1770950131581689600,5.004689697265625,0.21441353857517242,-0.031154103577136993,0.2309068888425827
1770950131600659000,5.023658935546875,0.23029601573944092,-0.03787361457943916,0.2767217457294464
1770950131619628500,5.042628662109375,0.2522871494293213,0.03237583488225937,0.21746785938739777
1770950131638598000,5.061597900390625,0.2675587832927704,0.12156209349632263,0.13744457066059113
1770950131657567500,5.0805673828125,0.23945899307727814,0.22357651591300964,0.08674279600381851
1770950131676536800,5.099536865234375,0.16798780858516693,0.27855435013771057,0.10934479534626007
1770950131695506200,5.118506103515625,0.08307760953903198,0.3133736252784729,0.1893680840730667
1770950131714475800,5.137475830078125,0.028099779039621353,0.3756818473339081,0.2510654330253601
1770950131733445400,5.1564453125,-0.003665188793092966,0.3494146466255188,0.2211330533027649
1770950131752414700,5.175414794921875,-0.01893680728971958,0.21258094906806946,0.06780599057674408
1770950131771384000,5.194384033203125,-0.012217295356094837,0.08002328872680664,-0.11606431007385254
1770950131790353700,5.213353759765625,0.10140355676412582,0.17287473380565643,-0.20280711352825165
1770950131809323000,5.232322998046875,0.5204567909240723,0.6719512343406677,-0.10140355676412582
1770950131828292600,5.251292724609375,1.0323615074157715,1.1447606086730957,-0.11056652665138245
1770950131847262000,5.270261962890625,1.2370011806488037,1.056185245513916,-0.46364638209342957
1770950131866231300,5.289231201171875,0.8747583627700806,0.5528326034545898,-0.8344413042068481
1770950131885201000,5.308200927734375,0.4679224193096161,0.31459537148475647,-0.7055488228797913
1770950131904170200,5.327170166015625,0.6261364221572876,0.3433060050010681,-0.11178825795650482
1770950131923139800,5.346139892578125,1.084285020828247,0.287106454372406,0.4416552484035492
1770950131942109200,5.365109130859375,1.3158026933670044,-0.08552107214927673,0.3995055556297302
1770950131961078500,5.38407861328125,1.1954623460769653,-0.06719512492418289,0.011606430634856224
1770950131980048000,5.4030478515625,0.9016364216804504,0.3274235129356384,-0.3481929302215576
1770950131999017500,5.422017578125,0.6548470258712769,0.7165443897247314,-0.5656607747077942
1770950132017986800,5.44098681640625,0.4251618981361389,0.8057306408882141,-0.6389645338058472
1770950132036956200,5.4599560546875,0.42332929372787476,0.7849612236022949,-0.5992583632469177
1770950132055925800,5.47892578125,0.5229002237319946,0.6829468011856079,-0.46608981490135193
1770950132074895000,5.49789501953125,0.721431314945221,0.5338957905769348,-0.27916520833969116
1770950132093864700,5.51686474609375,0.8808670043945312,0.37140578031539917,-0.1637117564678192
1770950132112834000,5.535833984375,0.9584468603134155,0.14599667489528656,-0.17165300250053406
1770950132131803400,5.554803466796875,0.9211840629577637,-0.08368847519159317,-0.20769402384757996
1770950132150772700,5.573772705078125,0.7874047160148621,-0.328645259141922,-0.18875721096992493
1770950132169742300,5.592742431640625,0.565049946308136,-0.43371400237083435,-0.10995566099882126
1770950132188711700,5.611711669921875,0.3182605504989624,-0.36285367608070374,0.03176496922969818
1770950132207681300,5.630681396484375,0.164322629570961,-0.1386663019657135,0.2883281707763672
1770950132226650600,5.649650634765625,0.1081230640411377,0.07147117704153061,0.4221075773239136
1770950132245620000,5.668619873046875,0.10079269111156464,0.10567960888147354,0.33047783374786377
1770950132264589300,5.68758935546875,0.036651886999607086,-0.03543015569448471,0.10323614627122879
1770950132283559000,5.706558837890625,-0.10018182545900345,-0.18814635276794434,-0.07574722915887833
1770950132302528300,5.7255283203125,-0.32070401310920715,-0.20952661335468292,-0.18387030065059662
1770950132321497600,5.74449755859375,-0.3750709891319275,-0.009162971749901772,-0.12522727251052856
1770950132340467000,5.763467041015625,-0.26511532068252563,0.06108647957444191,-0.002443459117785096
1770950132359436300,5.782436279296875,-0.19792018830776215,0.11362084746360779,0.1795942485332489
1770950132378406000,5.801406005859375,-0.3182605504989624,0.09834922850131989,0.2370155304670334
1770950132397375200,5.820375244140625,-0.5723803043365479,-0.02871064469218254,0.13561198115348816
1770950132416344600,5.839344482421875,-0.6835576891899109,-0.2657261788845062,0.03237583488225937
1770950132435314000,5.85831396484375,-0.5338957905769348,-0.5088503360748291,0.11056652665138245
1770950132454283300,5.877283203125,-0.20647229254245758,-0.6829468011856079,0.2767217457294464
1770950132473252900,5.8962529296875,0.09040798991918564,-0.7031053900718689,0.33597561717033386
1770950132492222200,5.91522216796875,0.043982263654470444,-0.7061597108840942,0.24923282861709595
1770950132511191600,5.934191650390625,-0.2510654330253601,-0.7055488228797913,0.12950333952903748
1770950132530161000,5.953160888671875,-0.56382817029953,-0.6200277805328369,0.009773836471140385
1770950132549130200,5.972130126953125,-0.7031053900718689,-0.43310311436653137,-0.09346231073141098
1770950132568099800,5.991099853515625,-0.6902772188186646,-0.2412915825843811,-0.1795942485332489
1770950132587069200,6.010069091796875,-0.593149721622467,-0.08307760953903198,-0.15577052533626556
1770950132606038500,6.02903857421875,-0.4776962697505951,-0.07757982611656189,0.03543015569448471
1770950132625007900,6.0480078125,-0.3836230933666229,-0.22724169492721558,0.23518294095993042
1770950132643977200,6.066977294921875,-0.3225366175174713,-0.3805687427520752,0.3329212963581085
1770950132662946800,6.08594677734375,-0.2974911332130432,-0.41355544328689575,0.33536475896835327
1770950132681916200,6.104916259765625,-0.2987128794193268,-0.318871408700943,0.30543237924575806
1770950132700885500,6.123885498046875,-0.32620179653167725,-0.10018182545900345,0.29565855860710144
1770950132719854800,6.142854736328125,-0.36163195967674255,0.1282816082239151,0.30604326725006104
1770950132738824200,6.16182421875,-0.35185810923576355,0.32559093832969666,0.3231474757194519
1770950132757793500,6.18079345703125,-0.2614501118659973,0.4221075773239136,0.30543237924575806
1770950132776763000,6.199762939453125,-0.12217295914888382,0.43432486057281494,0.26511532068252563
1770950132795732200,6.218732177734375,0.010384701192378998,0.401949018239975,0.1948658674955368
1770950132814701800,6.237701904296875,0.1026252806186676,0.29993459582328796,0.02932151034474373
1770950132833671200,6.256671142578125,0.23396120965480804,0.24251331388950348,-0.11362084746360779
1770950132852640500,6.275640625,0.4526508152484894,0.2663370370864868,0.007941242307424545
1770950132871609900,6.29460986328125,0.7318159937858582,0.3854556679725647,0.42394015192985535
1770950132890579200,6.3135791015625,1.130099892616272,0.8374956250190735,0.998763918876648
1770950132909548500,6.332548583984375,1.2993093729019165,0.7672461867332458,0.952949047088623
1770950132928518000,6.351517822265625,0.9395100474357605,0.031154103577136993,0.21930044889450073
1770950132947487200,6.3704873046875,0.2663370370864868,-0.37262752652168274,-0.4422661066055298
1770950132966456600,6.38945654296875,-0.1954767256975174,-0.03848448023200035,-0.647516667842865
1770950132985426000,6.408426025390625,-0.1747073233127594,0.49968740344047546,-0.5845975875854492
1770950133004395300,6.427395263671875,0.10690133273601532,0.6029235124588013,-0.6786707639694214
1770950133023364600,6.446364501953125,0.277332603931427,0.5729911923408508,-0.8374956250190735
1770950133042334000,6.465333984375,0.26389357447624207,0.860708475112915,-0.8020654320716858
1770950133061303300,6.48430322265625,0.23518294095993042,1.1423171758651733,-0.5717694163322449
1770950133080272600,6.503272705078125,0.3072649836540222,1.155145287513733,-0.29504770040512085
1770950133099242000,6.522241943359375,0.3591884970664978,0.8362739086151123,-0.10629047453403473
1770950133118211300,6.54121142578125,0.30054548382759094,0.49663305282592773,-0.004886918235570192
1770950133137180700,6.5601806640625,0.23945899307727814,0.25473061203956604,0.1337793916463852
1770950133156150000,6.57914990234375,0.28588470816612244,0.07269290834665298,0.29077163338661194
1770950133175119400,6.598119384765625,0.360410213470459,-0.11667517572641373,0.3347539007663727
1770950133194088700,6.617088623046875,0.3634645342826843,-0.15699224174022675,0.318871408700943
1770950133213058000,6.63605810546875,0.33658650517463684,-0.08918625861406326,0.3139844834804535
1770950133232027400,6.65502734375,0.3298669755458832,-0.026878049597144127,0.37323838472366333
1770950133250996700,6.673996826171875,0.2669478952884674,-0.012217295356094837,0.4404335021972656
1770950133269966000,6.692966064453125,0.16004657745361328,-0.09040798991918564,0.4581485986709595
1770950133288935400,6.711935302734375,0.03787361457943916,-0.1905898153781891,0.3805687427520752
1770950133307904500,6.730904541015625,-0.10995566099882126,-0.2712239623069763,0.1948658674955368
1770950133326874000,6.7498740234375,-0.2932150959968567,-0.3854556679725647,-0.09896009415388107
1770950133345843200,6.76884326171875,-0.37812530994415283,-0.39828383922576904,-0.3738492429256439
1770950133364812500,6.7878125,-0.41355544328689575,-0.3652971386909485,-0.5900954008102417
1770950133383782000,6.806781982421875,-0.7648026943206787,-0.17165300250053406,-0.7739656567573547
1770950133402751200,6.825751220703125,-1.4110976457595825,0.15638138353824615,-1.0506874322891235
1770950133421720600,6.844720458984375,-1.6493349075317383,0.47586366534233093,-1.1594213247299194
1770950133440690000,6.86368994140625,-1.2919789552688599,0.3133736252784729,-0.9712749719619751
1770950133459659300,6.8826591796875,-0.6334667801856995,-0.3023780584335327,-0.861319363117218
1770950133478628600,6.901628662109375,-0.07635809481143951,-0.5369501113891602,-0.9584468603134155
1770950133497598000,6.920597900390625,0.09529490768909454,-0.1795942485332489,-0.8594867587089539
1770950133516567000,6.939567138671875,-0.10018182545900345,0.20463970303535461,-0.5436696410179138
1770950133535536400,6.958536376953125,-0.4068359434604645,0.27916520833969116,-0.3066541254520416
1770950133554505700,6.977505615234375,-0.56382817029953,0.14538581669330597,-0.1649334877729416
1770950133573475000,6.99647509765625,-0.44348782300949097,-0.0769689604640007,-0.001832594396546483
1770950133592444400,7.0154443359375,-0.10140355676412582,-0.3084867000579834,0.26939135789871216
1770950133611413800,7.034413818359375,0.25045454502105713,-0.4764745235443115,0.6291907429695129
1770950133630382800,7.0533828125,0.4361574649810791,-0.5198459029197693,0.924849271774292
1770950133649352200,7.072352294921875,0.42943793535232544,-0.45998117327690125,1.082452416419983
1770950133668321500,7.091321533203125,0.33536475896835327,-0.3750709891319275,1.1197150945663452
1770950133687291000,7.110290771484375,0.20830489695072174,-0.3597993552684784,1.0091485977172852
1770950133706260200,7.12926025390625,0.03787361457943916,-0.43493571877479553,0.7770199775695801
1770950133725229300,7.148229248046875,-0.1698204129934311,-0.4990765154361725,0.6206386089324951
1770950133744198700,7.16719873046875,-0.3646862804889679,-0.4825831651687622,0.4935787320137024
1770950133763168000,7.18616796875,-0.5485565662384033,-0.2730565667152405,0.24801109731197357
1770950133782137300,7.205137451171875,-0.6695078015327454,0.1185077652335167,-0.0409279391169548
1770950133801106400,7.2241064453125,-0.6933315396308899,0.43432486057281494,-0.28954991698265076
1770950133820075800,7.24307568359375,-0.6206386089324951,0.544891357421875,-0.5076286196708679
1770950133839045000,7.262045166015625,-0.36651885509490967,0.516791582107544,-0.5962040424346924
1770950133858014500,7.281014404296875,0.10873392969369888,0.49052441120147705,-0.4111120104789734
1770950133876983800,7.29998388671875,0.43982264399528503,0.28954991698265076,-0.2559523284435272
1770950133895953000,7.318952880859375,0.4098902642726898,0.007330377586185932,-0.2932150959968567
1770950133914922200,7.337922119140625,0.3035998046398163,0.13744457066059113,-0.05742128938436508
1770950133933891600,7.3568916015625,0.4880809485912323,0.26878049969673157,0.472198486328125
1770950133952860700,7.375860595703125,0.7727439403533936,-0.13927717506885529,0.8014546036720276
1770950133971830000,7.394830078125,0.8203914165496826,-0.8527672290802002,0.7654135823249817
1770950133990799400,7.41379931640625,0.5729911923408508,-1.204014539718628,0.48441576957702637
1770950134009768700,7.432768798828125,0.22174391150474548,-0.9816597104072571,0.19669845700263977
1770950134028737800,7.45173779296875,-0.05253437161445618,-0.4159989058971405,0.012217295356094837
1770950134047707100,7.47070703125,-0.1795942485332489,0.11117739230394363,-0.09529490768909454
1770950134066676500,7.489676513671875,-0.16798780858516693,0.3750709891319275,-0.12644900381565094
1770950134085645600,7.5086455078125,-0.07574722915887833,0.3695732057094574,-0.1233946830034256
1770950134104615000,7.527614990234375,0.05742128938436508,0.24251331388950348,-0.11239911615848541
1770950134123584300,7.546584228515625,0.22724169492721558,0.08063415437936783,-0.12461641430854797
1770950134142553300,7.56555322265625,0.4459312856197357,-0.08124501258134842,-0.22296564280986786
1770950134161522700,7.584522705078125,0.6896663308143616,-0.21868959069252014,-0.3756818473339081
1770950134180492000,7.603491943359375,0.880256175994873,-0.37751442193984985,-0.5656607747077942
1770950134199461000,7.622461181640625,0.9450078010559082,-0.4923570156097412,-0.7360920310020447
1770950134218430500,7.641430419921875,0.8271108865737915,-0.44470956921577454,-0.794124186038971
1770950134237399600,7.660399658203125,0.5064069032669067,0.04581485688686371,-0.7189878225326538
1770950134256369000,7.679368896484375,0.16615521907806396,0.6603448390960693,-0.5845975875854492
1770950134275338200,7.698338134765625,-0.004276053514331579,0.9107993841171265,-0.6010909676551819
1770950134294307300,7.717307373046875,-0.03543015569448471,0.7984002828598022,-0.841160774230957
1770950134313276700,7.736276611328125,-0.047036588191986084,0.6273581385612488,-1.110552191734314
1770950134332245800,7.755245849609375,-0.021380268037319183,0.5442805290222168,-1.1979057788848877
1770950134351215000,7.774215087890625,0.07880155742168427,0.7018836140632629,-1.1514800786972046
1770950134370184200,7.79318408203125,0.2009745091199875,0.934623122215271,-1.1826342344284058
1770950134389153500,7.812153564453125,0.2205221801996231,1.0134246349334717,-1.2168426513671875
1770950134408123000,7.831122802734375,0.059864748269319534,0.8436042666435242,-1.135597586631775
1770950134427092000,7.850092041015625,-0.07086031138896942,0.4838049113750458,-0.9413426518440247
1770950134446061300,7.869061279296875,0.0256563201546669,0.09651663154363632,-0.5338957905769348
1770950134465030400,7.888030517578125,0.1539379209280014,-0.2761108875274658,-0.04825831577181816
1770950134483999700,7.906999755859375,0.1905898153781891,-0.3707949221134186,0.3127627670764923
1770950134502968800,7.92596875,0.0977383628487587,-0.1795942485332489,0.4257727563381195
1770950134521938200,7.944938232421875,-0.034208428114652634,0.11056652665138245,0.41294458508491516
1770950134540907300,7.9639072265625,-0.17592905461788177,0.3390299379825592,0.3549124300479889
1770950134559876600,7.982876708984375,-0.2816086709499359,0.4214966893196106,0.25961753726005554
1770950134578845700,8.001845703125,-0.3084867000579834,0.3646862804889679,0.18875721096992493
1770950134597815000,8.02081494140625,-0.2730565667152405,0.15027274191379547,0.17165300250053406
1770950134616784100,8.0397841796875,-0.164322629570961,-0.036651886999607086,0.2510654330253601
1770950134635753500,8.05875341796875,-0.039706211537122726,-0.12156209349632263,0.39339691400527954
1770950134654722600,8.07772265625,0.06475166976451874,-0.17287473380565643,0.564439058303833
1770950134673692000,8.09669189453125,0.0873536616563797,-0.23029601573944092,0.6798924803733826
1770950134692661000,8.115660888671876,0.01588248461484909,-0.29443681240081787,0.7024945020675659
1770950134711630300,8.13463037109375,-0.08979712426662445,-0.3787361681461334,0.656679630279541
1770950134730599400,8.153599365234374,-0.23273947834968567,-0.3909534513950348,0.5027416944503784
1770950134749568500,8.172568603515625,-0.41233372688293457,-0.3402516841888428,0.23518294095993042
1770950134768537900,8.191537841796874,-0.5522217750549316,-0.19425499439239502,-0.0818558782339096
1770950134787507000,8.2105068359375,-0.593149721622467,0.08796452730894089,-0.3084867000579834
1770950134806476300,8.229476318359374,-0.573602020740509,0.33719736337661743,-0.4043924808502197
1770950134825445400,8.2484453125,-0.47525280714035034,0.5039634704589844,-0.3799578845500946
1770950134844414700,8.267414794921875,-0.258395791053772,0.6884446144104004,-0.22296564280986786
1770950134863383800,8.2863837890625,0.185092031955719,0.7843503952026367,-0.06841685622930527
1770950134882353000,8.305352783203125,0.6633991599082947,0.6291907429695129,-0.04459312930703163
1770950134901322200,8.324322265625,0.7141009569168091,0.2315177470445633,-0.10079269111156464
1770950134920291300,8.343291259765625,0.4196641147136688,0.056810423731803894,-0.017715077847242355
1770950134939260700,8.3622607421875,0.2767217457294464,0.26389357447624207,0.347582072019577
1770950134958229800,8.381229736328125,0.5302306413650513,0.3530798554420471,0.7574723362922668
1770950134977198800,8.40019873046875,0.9419534802436829,0.04886918142437935,0.9187406301498413
1770950134996168200,8.419168212890625,1.1404845714569092,-0.5748237371444702,0.8454368710517883
1770950135015137300,8.43813720703125,0.9474512934684753,-0.9321796298027039,0.7428115606307983
1770950135034106400,8.4571064453125,0.47036588191986084,-0.8784235715866089,0.5827649831771851
1770950135053075500,8.476075439453124,-0.04520399495959282,-0.5161807537078857,0.287106454372406
1770950135072044800,8.495044921875,-0.4001164436340332,-0.08552107214927673,-0.08429934084415436
1770950135091014000,8.514013916015625,-0.5717694163322449,0.17592905461788177,-0.36285367608070374
1770950135109983000,8.53298291015625,-0.5705476999282837,0.2993237376213074,-0.44837474822998047
1770950135128952300,8.551952392578125,-0.4111120104789734,0.3231474757194519,-0.37629270553588867
1770950135147921400,8.57092138671875,-0.11117739230394363,0.33047783374786377,-0.1740964651107788
1770950135166890500,8.589890380859375,0.1533270627260208,0.12950333952903748,0.03848448023200035
1770950135185859800,8.60885986328125,0.3127627670764923,-0.18692462146282196,0.13439024984836578
1770950135204828700,8.62782861328125,0.38728827238082886,-0.4172206521034241,0.17348559200763702
1770950135223798000,8.646798095703126,0.33231043815612793,-0.5503891706466675,0.2009745091199875
1770950135242767000,8.66576708984375,0.143553227186203,-0.6212494969367981,0.2260199636220932
1770950135261736200,8.684736083984374,-0.08674279600381851,-0.5705476999282837,0.2571740746498108
1770950135280705500,8.70370556640625,-0.23457208275794983,-0.3750709891319275,0.3585776388645172
1770950135299674600,8.722674560546874,-0.30543237924575806,-0.19914191961288452,0.45448338985443115
1770950135318643700,8.741643798828125,-0.37812530994415283,-0.1288924664258957,0.45387253165245056
1770950135337612800,8.76061279296875,-0.48441576957702637,-0.09468404203653336,0.3042106628417969
1770950135356582100,8.77958203125,-0.5766563415527344,-0.09040798991918564,0.08124501258134842
1770950135375551200,8.79855126953125,-0.546113133430481,-0.0977383628487587,-0.047036588191986084
1770950135394520300,8.817520263671875,-0.48930269479751587,-0.20952661335468292,-0.06536252796649933
1770950135413489400,8.836489501953125,-0.6114756464958191,-0.25534147024154663,-0.12644900381565094
1770950135432458500,8.85545849609375,-0.9358448386192322,-0.2706131041049957,-0.27916520833969116
1770950135451427600,8.874427490234375,-1.147204041481018,-0.16676609218120575,-0.38179048895835876
1770950135470397000,8.89339697265625,-1.0305289030075073,-0.06597339361906052,-0.3042106628417969
1770950135489365800,8.91236572265625,-0.6023126840591431,-0.12644900381565094,-0.0769689604640007
1770950135508335000,8.931335205078126,-0.05558869615197182,-0.30115634202957153,0.07024945318698883
1770950135527304200,8.95030419921875,0.30970844626426697,-0.24006985127925873,0.14477495849132538
1770950135546273300,8.969273193359374,0.2614501118659973,-0.08674279600381851,0.164322629570961
1770950135565242400,8.988242431640625,-0.05497783049941063,0.08857539296150208,0.17226386070251465
1770950135584211500,9.00721142578125,-0.41844236850738525,0.17715078592300415,0.13683371245861053
1770950135603180500,9.0261806640625,-0.6621774435043335,0.1081230640411377,0.07452550530433655
1770950135622149600,9.045149658203124,-0.7226530313491821,-0.10629047453403473,0.04825831577181816
1770950135641119000,9.064118896484375,-0.6169734001159668,-0.33536475896835327,0.10018182545900345
1770950135660088000,9.083088134765624,-0.4734202027320862,-0.4404335021972656,0.2309068888425827
1770950135679057200,9.10205712890625,-0.38667741417884827,-0.4251618981361389,0.4007273018360138
1770950135698026200,9.121026123046875,-0.3836230933666229,-0.35735589265823364,0.5406153202056885
1770950135716995300,9.139995361328126,-0.43982264399528503,-0.35246896743774414,0.5430588126182556
1770950135735964400,9.15896435546875,-0.5290089249610901,-0.3433060050010681,0.42943793535232544
1770950135754933500,9.17793359375,-0.6114756464958191,-0.34574946761131287,0.3298669755458832
1770950135773902600,9.196902587890625,-0.6969966888427734,-0.2767217457294464,0.24740023910999298
1770950135792871700,9.21587158203125,-0.7867938280105591,-0.09162971377372742,0.19303326308727264
1770950135811840800,9.2348408203125,-0.7831286191940308,0.1233946830034256,0.23335035145282745
1770950135830809900,9.253809814453126,-0.6273581385612488,0.28588470816612244,0.3023780584335327
1770950135849779000,9.272779052734375,-0.3543015718460083,0.3274235129356384,0.31642794609069824
1770950135868748000,9.291748046875,-0.08857539296150208,0.23212862014770508,0.24434591829776764
1770950135887717000,9.310717041015625,0.13011419773101807,0.13500112295150757,0.06963858753442764
1770950135906686200,9.329686279296874,0.21135921776294708,0.03787361457943916,-0.2626718580722809
1770950135925655300,9.3486552734375,0.18264856934547424,0.021991131827235222,-0.6084213256835938
1770950135944624400,9.367624267578124,0.08979712426662445,0.19303326308727264,-0.6414080262184143
1770950135963593500,9.386593505859375,0.21868959069252014,0.5210676789283752,-0.15638138353824615
1770950135982562600,9.4055625,0.7250964641571045,0.6957749724388123,0.5229002237319946
1770950136001531600,9.42453173828125,1.361006736755371,0.3903425931930542,0.8093958497047424
1770950136020500700,9.443500732421874,1.7666209936141968,-0.21685700118541718,0.6939423680305481
1770950136039469800,9.4624697265625,1.7482949495315552,-0.6841685771942139,0.41355544328689575
1770950136058439000,9.48143896484375,1.3573415279388428,-0.7067705392837524,0.06108647957444191
1770950136077408000,9.500407958984376,0.8350521326065063,-0.3347539007663727,-0.27488914132118225
1770950136096377000,9.519377197265625,0.4001164436340332,0.20219624042510986,-0.546113133430481
1770950136115346200,9.53834619140625,0.12583814561367035,0.4874700903892517,-0.7605266571044922
1770950136134315300,9.557315185546875,-0.02871064469218254,0.5039634704589844,-0.8387173414230347
1770950136153284000,9.5762841796875,-0.046425722539424896,0.41416633129119873,-0.6750055551528931
1770950136172253200,9.595253173828125,0.09712749719619751,0.30970844626426697,-0.35735589265823364
1770950136191222300,9.61422216796875,0.36774060130119324,0.22357651591300964,-0.16798780858516693
1770950136210191400,9.63319140625,0.675616443157196,0.10018182545900345,-0.16615521907806396
1770950136229160400,9.652160400390626,0.9358448386192322,-0.020158538594841957,-0.2724456787109375
1770950136248129500,9.671129638671875,1.053130865097046,-0.11178825795650482,-0.3426951467990875
1770950136267098600,9.6900986328125,1.0201442241668701,-0.18631376326084137,-0.32681265473365784
1770950136286067700,9.709067626953125,0.8924734592437744,-0.2926042377948761,-0.22907429933547974
1770950136305036800,9.728036865234374,0.8118392825126648,-0.2419024556875229,0.027488915249705315
1770950136324006000,9.747005859375,0.8289434909820557,-0.07452550530433655,0.3127627670764923
1770950136342974700,9.765974609375,0.9120211005210876,-0.020158538594841957,0.28466299176216125
1770950136361943800,9.78494384765625,0.9334014058113098,-0.08368847519159317,0.07941242307424545
1770950136380913000,9.803912841796874,0.8069523572921753,-0.1026252806186676,-0.018325943499803543
1770950136399882000,9.822882080078125,0.6340776681900024,-0.040317077189683914,0.04520399495959282
1770950136418851000,9.84185107421875,0.6908880472183228,0.03909534588456154,0.2834412455558777
1770950136437820200,9.860820068359375,1.081230640411377,0.3078758418560028,0.7519745230674744
1770950136456789000,9.8797890625,1.2932007312774658,0.6071996092796326,0.729983389377594
1770950136475758000,9.898758056640625,0.7770199775695801,0.740368127822876,0.03176496922969818
1770950136494727200,9.91772705078125,0.22296564280986786,0.2608392536640167,-0.750141978263855
1770950136513696300,9.9366962890625,-0.1795942485332489,-0.16798780858516693,-1.053130865097046
1770950136532665300,9.955665283203125,-0.28405213356018066,0.13683371245861053,-0.7843503952026367
1770950136551634200,9.97463427734375,0.004276053514331579,0.5412262082099915,-0.25534147024154663
1770950136570603300,9.993603271484375,0.6096430420875549,1.1490366458892822,0.38789913058280945
1770950136589572400,10.012572265625,0.9761618971824646,1.3408482074737549,0.6059778332710266
1770950136608541200,10.031541259765625,0.5198459029197693,0.5369501113891602,0.17287473380565643
1770950136627510300,10.05051025390625,-0.013439024798572063,0.17226386070251465,-0.08368847519159317
1770950136646479400,10.069479248046875,-0.3646862804889679,0.004886918235570192,-0.2877173125743866
1770950136665448400,10.088448486328126,-0.45937031507492065,0.1533270627260208,-0.3347539007663727
1770950136684417500,10.10741748046875,-0.45020735263824463,0.31154105067253113,-0.2101374864578247
1770950136703386400,10.126386474609374,-0.38728827238082886,0.3970620930194855,-0.07574722915887833
1770950136722355500,10.14535546875,-0.34208428859710693,0.36651885509490967,-0.05803215503692627
1770950136741324500,10.164324462890624,-0.3274235129356384,0.31031930446624756,-0.09590577334165573
1770950136760293400,10.18329345703125,-0.23518294095993042,0.27550002932548523,-0.05070177838206291
1770950136779262500,10.202262451171874,-0.006108647678047419,0.14477495849132538,0.15088360011577606
1770950136798231600,10.2212314453125,0.2712239623069763,-0.027488915249705315,0.47586366534233093
1770950136817200600,10.24020068359375,0.472198486328125,-0.24923282861709595,0.6615665555000305
1770950136836169500,10.25916943359375,0.5125155448913574,-0.347582072019577,0.6120865345001221
1770950136855138600,10.278138671875,0.4563159942626953,-0.3756818473339081,0.4575377106666565
1770950136874107600,10.297107666015625,0.38240134716033936,-0.16249002516269684,0.3585776388645172
1770950136893076500,10.316076416015624,0.3494146466255188,-0.020158538594841957,0.27855435013771057
1770950136912045600,10.335045654296875,0.3329212963581085,0.10018182545900345,0.2993237376213074
1770950136931014400,10.354014404296874,0.2461785078048706,0.15027274191379547,0.4318813979625702
1770950136949983500,10.3729833984375,0.11911863088607788,0.10567960888147354,0.6334667801856995
1770950136968952600,10.39195263671875,0.06352993845939636,0.017104214057326317,0.7189878225326538
1770950136987921400,10.41092138671875,0.09468404203653336,-0.06597339361906052,0.647516667842865
1770950137006890500,10.429890380859375,0.19364413619041443,-0.053145237267017365,0.5247328281402588
1770950137025859600,10.448859619140626,0.29504770040512085,-0.012217295356094837,0.42088583111763
1770950137044828400,10.467828369140625,0.3946186602115631,0.21441353857517242,0.4105011224746704
1770950137063797500,10.486797607421876,0.43432486057281494,0.4789179861545563,0.45326167345046997
1770950137082766600,10.5057666015625,0.2712239623069763,0.37751442193984985,0.2211330533027649
1770950137101735400,10.5247353515625,-0.12950333952903748,-0.29626941680908203,-0.3341430425643921
1770950137120704500,10.54370458984375,-0.43860089778900146,-0.29443681240081787,-0.5790998339653015
1770950137139673300,10.56267333984375,-0.27427828311920166,0.3530798554420471,-0.2577849328517914
1770950137158642400,10.581642333984375,0.5015199780464172,0.9969313144683838,0.15088360011577606
1770950137177611500,10.600611572265626,1.6053526401519775,1.193018913269043,0.389120876789093
1770950137196580400,10.619580322265625,2.0964879989624023,0.56382817029953,0.2632827162742615
1770950137215549400,10.638549560546876,1.71836256980896,-0.034208428114652634,-0.03848448023200035
1770950137234518300,10.657518310546875,1.0103703737258911,-0.4978547990322113,-0.38301220536231995
1770950137253487000,10.676487060546876,0.2565632164478302,-0.6359102129936218,-0.6841685771942139
1770950137272456200,10.695456298828125,-0.21319180727005005,-0.20769402384757996,-0.695164144039154
1770950137291425000,10.714425048828126,-0.34697118401527405,0.33658650517463684,-0.4612029194831848
1770950137310394000,10.73339404296875,-0.1545487940311432,0.7024945020675659,-0.1337793916463852
1770950137329363200,10.75236328125,0.1233946830034256,0.8087849617004395,0.043982263654470444
1770950137348332000,10.77133203125,0.2406807243824005,0.5943714380264282,0.008552107028663158
1770950137367301000,10.790301025390624,0.17653992772102356,0.3335321843624115,-0.1441640853881836
1770950137386270000,10.80927001953125,0.0256563201546669,0.09529490768909454,-0.3909534513950348
1770950137405239000,10.828239013671874,-0.09529490768909454,-0.03787361457943916,-0.5778780579566956
1770950137424208000,10.847207763671875,-0.1233946830034256,-0.009162971749901772,-0.6090322136878967
1770950137443177000,10.866177001953124,-0.07635809481143951,0.10934479534626007,-0.4734202027320862
1770950137462145800,10.885145751953125,0.01282816007733345,0.27855435013771057,-0.3249800503253937
1770950137481115000,10.904114990234374,0.1178968995809555,0.3341430425643921,-0.3329212963581085
1770950137500083700,10.923083740234375,0.22724169492721558,0.31520622968673706,-0.3854556679725647
1770950137519052500,10.942052490234374,0.29016077518463135,0.23212862014770508,-0.3811796307563782
1770950137538021600,10.961021728515625,0.3335321843624115,0.05192350596189499,-0.28038692474365234
1770950137556990500,10.979990478515624,0.40317076444625854,-0.1954767256975174,-0.08002328872680664
1770950137575959600,10.99895947265625,0.45387253165245056,-0.3494146466255188,0.18631376326084137
1770950137594928400,11.017928466796874,0.39767298102378845,-0.29626941680908203,0.4257727563381195
1770950137613897500,11.0368974609375,0.21380266547203064,-0.03298669680953026,0.535728394985199
1770950137632866300,11.0558662109375,-0.03543015569448471,0.06597339361906052,0.5345066785812378
1770950137651835400,11.07483544921875,-0.15088360011577606,-0.1844811588525772,0.5760455131530762
1770950137670804200,11.09380419921875,-0.06780599057674408,-0.7929024696350098,0.6432406306266785
1770950137689773000,11.11277294921875,-0.04825831577181816,-1.4825688600540161,0.6536253094673157
1770950137708742100,11.1317421875,-0.18570289015769958,-1.2705987691879272,0.6725621223449707
1770950137727711000,11.1507109375,-0.7874047160148621,-0.7953459620475769,0.4251618981361389
1770950137746680000,11.16968017578125,-1.544877052307129,-0.1692095398902893,0.06536252796649933
1770950137765649000,11.18864892578125,-1.6951497793197632,0.32070401310920715,-0.2730565667152405
1770950137784618000,11.207617919921875,-1.2553271055221558,0.32009315490722656,-0.5210676789283752
1770950137803586800,11.2265869140625,-0.9596685767173767,-0.379347026348114,-0.8820887207984924
1770950137822555600,11.2455556640625,-0.8826996088027954,-1.2345577478408813,-1.3921607732772827
1770950137841524700,11.264524658203126,-0.7409789562225342,-1.2632683515548706,-1.6969823837280273
1770950137860493600,11.28349365234375,-0.5222893953323364,-0.5900954008102417,-1.4538581371307373
1770950137879462400,11.30246240234375,-0.29504770040512085,0.05925388261675835,-0.9211840629577637
1770950137898431500,11.321431396484375,-0.10445787757635117,0.3756818473339081,-0.19914191961288452
1770950137917400300,11.340400390625,-0.13439024984836578,0.16310089826583862,0.37690356373786926
1770950137936369200,11.359369140625,-0.20769402384757996,-0.24251331388950348,0.5430588126182556
1770950137955338200,11.378338134765626,-0.18692462146282196,-0.40255987644195557,0.4770853817462921
1770950137974307000,11.39730712890625,-0.031154103577136993,-0.3433060050010681,0.4214966893196106
1770950137993276000,11.41627587890625,0.12034036219120026,-0.20952661335468292,0.35613417625427246
1770950138031213800,11.4542138671875,0.1649334877729416,0.1594357043504715,0.2926042377948761
1770950138050182700,11.4731826171875,0.1380554437637329,0.22724169492721558,0.3597993552684784
1770950138069151700,11.49215185546875,0.11667517572641373,0.05803215503692627,0.2467893660068512
1770950138088120600,11.51112060546875,0.10690133273601532,-0.11911863088607788,0.08368847519159317
1770950138107089400,11.53008935546875,0.21930044889450073,0.10384701192378998,0.08918625861406326
1770950138126058500,11.54905859375,0.5784889459609985,0.5290089249610901,0.2559523284435272
1770950138145027300,11.56802734375,0.8283326625823975,0.5064069032669067,0.22785256803035736
1770950138163996200,11.58699609375,0.6621774435043335,0.08491020649671555,-0.10995566099882126
1770950138182965200,11.60596533203125,0.31031930446624756,-0.164322629570961,-0.4312705397605896
1770950138201934000,11.62493408203125,0.1692095398902893,0.07086031138896942,-0.42943793535232544
1770950138220903000,11.64390283203125,0.27488914132118225,0.2981020212173462,-0.21930044889450073
1770950138239871700,11.662871826171875,0.5314523577690125,0.2974911332130432,-0.07941242307424545
1770950138258840800,11.6818408203125,0.6505709886550903,0.24006985127925873,-0.07941242307424545
1770950138277809700,11.7008095703125,0.5155698657035828,0.08979712426662445,-0.18081597983837128
1770950138296778500,11.719778564453126,0.29993459582328796,-0.11545344442129135,-0.3072649836540222
1770950138315747300,11.738747314453125,0.21319180727005005,-0.2510654330253601,-0.4105011224746704
1770950138334716400,11.75771630859375,0.24801109731197357,-0.23884813487529755,-0.4630354940891266
1770950138353685200,11.776685302734375,0.3078758418560028,-0.15699224174022675,-0.5094612240791321
1770950138372654000,11.795654052734376,0.34086254239082336,-0.018325943499803543,-0.5815432667732239
1770950138391623200,11.814623046875,0.3903425931930542,0.0769689604640007,-0.6768381595611572
1770950138410592000,11.833592041015624,0.4367683231830597,-0.14233149588108063,-0.8063415288925171
1770950138429560800,11.852560791015625,0.40378162264823914,-0.471587598323822,-0.880256175994873
1770950138448529700,11.87152978515625,0.3634645342826843,-0.62857985496521,-0.7409789562225342
1770950138467498500,11.89049853515625,0.411722868680954,-0.5253437161445618,-0.3585776388645172
1770950138486467300,11.90946728515625,0.5241219997406006,-0.05497783049941063,0.1539379209280014
1770950138505436400,11.9284365234375,0.5253437161445618,-0.053756099194288254,0.564439058303833
1770950138524405200,11.9474052734375,0.4728093445301056,-0.2052505612373352,0.8631519079208374
1770950138543374000,11.9663740234375,0.39339691400527954,-0.48563748598098755,0.8710931539535522
1770950138562343000,11.985343017578124,0.34208428859710693,-0.6255255341529846,0.6420188546180725
1770950138581312000,12.00431201171875,0.28954991698265076,-0.5424479246139526,0.1899789422750473
1770950138600280800,12.02328076171875,0.2626718580722809,-0.21319180727005005,-0.2877173125743866
1770950138619249700,12.042249755859375,0.24495677649974823,0.14110976457595825,-0.6139190793037415
1770950138638218500,12.061218505859374,0.25534147024154663,0.22357651591300964,-0.7226530313491821
1770950138657187300,12.080187255859375,0.29626941680908203,0.08307760953903198,-0.7037162184715271
1770950138676156400,12.099156494140624,0.14538581669330597,0.08307760953903198,-0.6835576891899109
1770950138695125200,12.118125244140625,-0.21685700118541718,0.3384190797805786,-0.7788525819778442
1770950138714094000,12.137093994140624,-0.5051851868629456,0.5766563415527344,-0.8924734592437744
1770950138733063000,12.15606298828125,-0.5351175665855408,0.5259546041488647,-0.8894191384315491
1770950138752031700,12.17503173828125,-0.45387253165245056,0.35124725103378296,-0.8826996088027954
1770950138771000600,12.19400048828125,-0.29626941680908203,0.33108872175216675,-0.8533781170845032
1770950138789969400,12.212969482421874,-0.039706211537122726,0.33108872175216675,-0.7287616729736328
1770950138808938500,12.2319384765625,0.2632827162742615,0.4312705397605896,-0.4630354940891266
1770950138827907300,12.2509072265625,0.4563159942626953,0.5467239618301392,-0.20463970303535461
1770950138846876200,12.269876220703125,0.37690356373786926,0.5027416944503784,-0.03298669680953026
1770950138865845000,12.288844970703124,0.08491020649671555,0.37323838472366333,0.026878049597144127
1770950138884813800,12.307813720703125,-0.10323614627122879,0.13133592903614044,0.07941242307424545
1770950138903782700,12.32678271484375,-0.13622283935546875,-0.023212861269712448,0.17226386070251465
1770950138922751500,12.34575146484375,-0.10445787757635117,0.07086031138896942,0.3090975880622864
1770950138941720300,12.36472021484375,-0.08124501258134842,0.26878049969673157,0.4514290690422058
1770950138960689200,12.383689208984375,-0.1185077652335167,0.28405213356018066,0.6120865345001221
1770950138979658000,12.402657958984374,-0.1899789422750473,0.16004657745361328,0.7226530313491821
1770950138998626800,12.421626708984375,-0.30054548382759094,0.012217295356094837,0.758694052696228
1770950139017596000,12.440595947265624,-0.37140578031539917,-0.01588248461484909,0.711046576499939
1770950139036564700,12.459564697265625,-0.38789913058280945,0.10934479534626007,0.7067705392837524
1770950139074502400,12.49750244140625,-0.2767217457294464,0.37751442193984985,0.5803215503692627
1770950139102955800,12.525955810546876,-0.3640754222869873,0.3066541254520416,0.30970844626426697
1770950139121924600,12.544924560546875,-0.2767217457294464,0.5088503360748291,0.1997527778148651
1770950139140893400,12.5638935546875,0.007941242307424545,0.6450732350349426,0.049480047076940536
1770950139159862300,12.5828623046875,0.3995055556297302,0.6298015713691711,0.001221729558892548
1770950139178831000,12.6018310546875,0.7073814272880554,0.5754346251487732,0.1282816082239151
1770950139197800000,12.620800048828125,0.6554579138755798,0.3811796307563782,0.3402516841888428
1770950139216768800,12.639768798828126,0.3811796307563782,-0.2712239623069763,0.06108647957444191
1770950139235737600,12.658737548828125,-0.056810423731803894,-0.1178968995809555,-0.25534147024154663
1770950139254706400,12.67770654296875,-0.22846342623233795,0.2657261788845062,-0.31581708788871765
1770950139273675300,12.69667529296875,0.020769402384757996,0.21135921776294708,-0.10201441496610641
1770950139292644000,12.71564404296875,0.5057960152626038,-0.2706131041049957,0.1692095398902893
1770950139311613000,12.734613037109375,0.9486730098724365,-0.5045742988586426,0.4098902642726898
1770950139330581800,12.753581787109376,1.0610721111297607,-0.2938259541988373,0.47036588191986084
1770950139349550600,12.772550537109375,0.7666352987289429,-0.37140578031539917,0.11362084746360779
1770950139368519400,12.79151953125,0.38850998878479004,-0.3970620930194855,-0.29443681240081787
1770950139387488300,12.81048828125,0.09712749719619751,-0.28588470816612244,-0.6615665555000305
1770950139406457000,12.82945703125,0.004886918235570192,-0.03176496922969818,-0.8124501705169678
1770950139425426000,12.848426025390625,0.12705987691879272,0.22235478460788727,-0.5082395076751709
1770950139444394800,12.867394775390625,0.36835145950317383,0.235793799161911,0.020769402384757996
1770950139463363600,12.886363525390625,0.5998691916465759,-0.11423171311616898,0.38850998878479004
1770950139482332400,12.90533251953125,0.7751874327659607,-0.4367683231830597,0.500298261642456
1770950139501301200,12.92430126953125,0.84177166223526,-0.5027416944503784,0.35246896743774414
1770950139520270000,12.94327001953125,0.7886264324188232,-0.3750709891319275,0.13622283935546875
1770950139539239000,12.962239013671875,0.5876519083976746,-0.1282816082239151,0.14049890637397766
1770950139558207700,12.981207763671875,0.337808221578598,0.12034036219120026,0.3689623177051544
1770950139577176600,13.000176513671875,0.09162971377372742,0.13194678723812103,0.5870410799980164
1770950139596145400,13.0191455078125,-0.07880155742168427,-0.09407317638397217,0.6212494969367981
1770950139615114200,13.0381142578125,-0.1533270627260208,-0.03848448023200035,0.3860665261745453
1770950139634083000,13.0570830078125,-0.07941242307424545,-0.09407317638397217,-0.05436696484684944
1770950139653052000,13.076052001953125,-0.07880155742168427,0.11484257876873016,-0.39400777220726013
1770950139672020700,13.095020751953125,-0.09712749719619751,0.1484401375055313,-0.5919279456138611
1770950139690989600,13.113989501953125,-0.08491020649671555,-0.007330377586185932,-0.6230821013450623
1770950139709958400,13.13295849609375,0.10690133273601532,-0.13622283935546875,-0.43310311436653137
1770950139728927200,13.15192724609375,0.33108872175216675,-0.1948658674955368,-0.18692462146282196
1770950139747896000,13.17089599609375,0.2559523284435272,-0.2009745091199875,-0.053756099194288254
1770950139766865000,13.189864990234375,-0.12278381735086441,-0.1026252806186676,-0.12217295914888382
1770950139785833500,13.20883349609375,-0.49663305282592773,0.11606431007385254,-0.24984370172023773
1770950139814286800,13.237286865234376,-0.4868592321872711,0.34147340059280396,-0.16615521907806396
1770950139833255700,13.256255615234375,-0.25534147024154663,0.24373504519462585,0.15149445831775665
1770950139852224500,13.275224609375,-0.11606431007385254,-0.015271619893610477,0.34574946761131287
1770950139871193300,13.294193359375,-0.12583814561367035,-0.12156209349632263,0.24434591829776764
1770950139890162200,13.313162109375,-0.2101374864578247,-0.06352993845939636,0.07086031138896942
1770950139909130800,13.332130859375,-0.3194822669029236,0.050090912729501724,-0.021380268037319183
1770950139928099800,13.351099853515626,-0.40866854786872864,0.12217295914888382,-0.03848448023200035
1770950139947068400,13.370068359375,-0.4324922561645508,0.08307760953903198,0.06230820715427399
1770950139966037200,13.389037353515626,-0.35796675086021423,-0.004276053514331579,0.23518294095993042
1770950139985006000,13.408006103515625,-0.21502439677715302,-0.10384701192378998,0.35246896743774414
1770950140003975000,13.426974853515626,-0.11972949653863907,-0.1380554437637329,0.36651885509490967
1770950140022943700,13.44594384765625,-0.11423171311616898,-0.039706211537122726,0.30482152104377747
1770950140041912600,13.46491259765625,-0.15821397304534912,0.05803215503692627,0.2522871494293213
1770950140060881400,13.48388134765625,-0.185092031955719,0.08857539296150208,0.23518294095993042
1770950140079850200,13.502850341796876,-0.19730933010578156,0.047036588191986084,0.30482152104377747
1770950140098818800,13.52181884765625,-0.21135921776294708,0.010995565913617611,0.39400777220726013
1770950140117787600,13.54078759765625,-0.20158538222312927,-0.03543015569448471,0.42271843552589417
1770950140136756500,13.559756591796875,-0.1637117564678192,0.11484257876873016,0.32681265473365784
1770950140155725300,13.578725341796876,-0.11362084746360779,0.2767217457294464,0.10690133273601532
1770950140174694100,13.597694091796875,-0.06780599057674408,0.3750709891319275,-0.12156209349632263
1770950140193663000,13.6166630859375,-0.036651886999607086,0.4526508152484894,-0.32009315490722656
1770950140212631800,13.6356318359375,-0.037262752652168274,0.45387253165245056,-0.42332929372787476
1770950140231600600,13.6546005859375,0.07513637095689774,0.4618137776851654,-0.3488037884235382
1770950140250569200,13.6735693359375,0.24556763470172882,0.29443681240081787,-0.2205221801996231
1770950140269538000,13.6925380859375,0.3139844834804535,0.027488915249705315,-0.2712239623069763
1770950140288507000,13.7115068359375,0.27855435013771057,-0.01954767294228077,-0.3689623177051544
1770950140307475700,13.730475830078126,0.32009315490722656,0.143553227186203,-0.16737695038318634
1770950140326444500,13.749444580078125,0.4868592321872711,0.10079269111156464,0.33047783374786377
1770950140345413400,13.768413330078126,0.6462949514389038,-0.21746785938739777,0.7641918659210205
1770950140364382200,13.78738232421875,0.7257073521614075,-0.6078104376792908,0.8045089244842529
1770950140383350800,13.806350830078125,0.6988292932510376,-0.6780598759651184,0.48441576957702637
1770950140402319600,13.825319580078125,0.5400044918060303,-0.4276053309440613,0.01954767294228077
1770950140421288400,13.844288330078125,0.28405213356018066,-0.08674279600381851,-0.35063639283180237
1770950140440257300,13.86325732421875,0.03909534588456154,0.11911863088607788,-0.4838049113750458
1770950140459226000,13.88222607421875,-0.08857539296150208,0.21930044889450073,-0.32559093832969666
1770950140478195000,13.90119482421875,-0.06108647957444191,0.18142683804035187,-0.1081230640411377
1770950140497163800,13.920163818359375,0.08429934084415436,0.10506874322891235,0.07635809481143951
1770950140516132400,13.93913232421875,0.2718348205089569,0.004886918235570192,0.20402882993221283
1770950140535101200,13.95810107421875,0.43860089778900146,-0.06719512492418289,0.2724456787109375
1770950140554070000,13.977070068359374,0.5613847374916077,-0.08368847519159317,0.23029601573944092
1770950140573038800,13.996038818359375,0.6224712133407593,-0.07330377399921417,0.13439024984836578
1770950140592007700,14.015007568359374,0.5607738494873047,-0.008552107028663158,0.11239911615848541
1770950140610976500,14.0339765625,0.3750709891319275,0.023823726922273636,0.17531819641590118
1770950140629945000,14.052945068359374,0.16859868168830872,0.006108647678047419,0.20219624042510986
1770950140648914000,14.071913818359375,0.04581485688686371,-0.0054977829568088055,0.10384701192378998
1770950140667882800,14.0908828125,-0.004276053514331579,0.06230820715427399,-0.050090912729501724
1770950140686851600,14.1098515625,-0.017715077847242355,0.1337793916463852,-0.1539379209280014
1770950140705820400,14.1288203125,-0.012217295356094837,0.17226386070251465,-0.18875721096992493
1770950140724789000,14.1477890625,-0.009773836471140385,0.11178825795650482,-0.235793799161911
1770950140743757800,14.1667578125,0.004886918235570192,0.0360410213470459,-0.33536475896835327
1770950140762726700,14.1857265625,0.08307760953903198,-0.06841685622930527,-0.40805765986442566
1770950140781695500,14.204695556640624,0.12950333952903748,-0.07147117704153061,-0.4379900395870209
1770950140800664300,14.223664306640625,0.03298669680953026,0.0977383628487587,-0.49418962001800537
1770950140819633200,14.242633056640624,-0.23762640357017517,0.3066541254520416,-0.5790998339653015
1770950140838601700,14.261601806640625,-0.39217519760131836,0.46059203147888184,-0.46608981490135193
1770950140857570600,14.280570556640624,-0.33231043815612793,0.21868959069252014,-0.11667517572641373
1770950140876539400,14.299539306640625,-0.19669845700263977,-0.17043127119541168,0.2632827162742615
1770950140895508200,14.31850830078125,-0.10140355676412582,-0.25411975383758545,0.3072649836540222
1770950140914476800,14.337476806640625,-0.08857539296150208,-0.10934479534626007,0.1441640853881836
1770950140933445600,14.356445556640624,-0.1802051067352295,-0.06780599057674408,0.03543015569448471
1770950140952414500,14.37541455078125,-0.36712974309921265,-0.16859868168830872,-0.020769402384757996
1770950140971383300,14.39438330078125,-0.5656607747077942,-0.20158538222312927,-0.037262752652168274
1770950140990352100,14.41335205078125,-0.665842592716217,-0.1533270627260208,-0.0054977829568088055
1770950141009321000,14.432321044921874,-0.6029235124588013,-0.11362084746360779,0.13072505593299866
1770950141028289500,14.45128955078125,-0.45448338985443115,-0.13439024984836578,0.2608392536640167
1770950141047258400,14.47025830078125,-0.3707949221134186,-0.1795942485332489,0.32681265473365784
1770950141066227200,14.489227294921875,-0.3915643095970154,-0.16249002516269684,0.3494146466255188
1770950141085196000,14.508196044921876,-0.44348782300949097,-0.1233946830034256,0.33597561717033386
1770950141104164900,14.527164794921875,-0.4673115611076355,-0.07635809481143951,0.31093016266822815
1770950141123133700,14.5461337890625,-0.45020735263824463,-0.021991131827235222,0.33108872175216675
1770950141142102300,14.565102294921875,-0.43860089778900146,-0.025045456364750862,0.3445277214050293
1770950141161071000,14.584071044921876,-0.44898560643196106,0.01282816007733345,0.26022839546203613
1770950141180040000,14.6030400390625,-0.46975502371788025,0.12278381735086441,0.1026252806186676
1770950141199008800,14.6220087890625,-0.43860089778900146,0.2467893660068512,-0.1178968995809555
1770950141217977300,14.640977294921875,-0.3481929302215576,0.32009315490722656,-0.2663370370864868
1770950141236946200,14.6599462890625,-0.24556763470172882,0.32009315490722656,-0.2412915825843811
1770950141255915000,14.6789150390625,-0.11056652665138245,0.2107483446598053,-0.1844811588525772
1770950141274883800,14.6978837890625,0.1484401375055313,0.21258094906806946,-0.09285144507884979
1770950141293852700,14.716852783203125,0.29993459582328796,0.1288924664258957,-0.13133592903614044
1770950141312821500,14.735821533203126,0.235793799161911,-0.0256563201546669,-0.318871408700943
1770950141331790000,14.7547900390625,0.08857539296150208,0.02932151034474373,-0.3756818473339081
1770950141350759000,14.773759033203126,0.10140355676412582,0.10995566099882126,-0.08307760953903198
1770950141369727700,14.792727783203125,0.3787361681461334,-0.09162971377372742,0.4514290690422058
1770950141388696600,14.811696533203126,0.6682860851287842,-0.5607738494873047,0.8436042666435242
1770950141407665200,14.8306650390625,0.7525854110717773,-0.8155044913291931,0.8112284541130066
1770950141426634000,14.849634033203126,0.6420188546180725,-0.6096430420875549,0.4831940531730652
1770950141445602800,14.868602783203125,0.5125155448913574,-0.28405213356018066,0.11056652665138245
1770950141464571600,14.887571533203126,0.3543015718460083,-0.12034036219120026,-0.11911863088607788
1770950141483540500,14.90654052734375,0.15210533142089844,-0.07269290834665298,-0.20463970303535461
1770950141502509000,14.925509033203125,-0.033597562462091446,0.03787361457943916,-0.21807873249053955
1770950141521478000,14.944477783203125,-0.11178825795650482,0.1386663019657135,-0.22846342623233795
1770950141540446700,14.96344677734375,-0.0513126403093338,0.17226386070251465,-0.17165300250053406
1770950141559415600,14.98241552734375,0.11117739230394363,0.07513637095689774,-0.06963858753442764
1770950141578384100,15.001384033203125,0.31031930446624756,-0.11239911615848541,0.021380268037319183
1770950141597353000,15.02035302734375,0.4764745235443115,-0.21441353857517242,0.0769689604640007
1770950141616321800,15.03932177734375,0.5589412450790405,-0.21991132199764252,0.08552107214927673
1770950141635290600,15.05829052734375,0.4935787320137024,-0.16249002516269684,0.06475166976451874
1770950141654259200,15.07725927734375,0.36224281787872314,-0.08796452730894089,0.001221729558892548
1770950141673228000,15.09622802734375,0.2211330533027649,-0.037262752652168274,-0.0922405794262886
1770950141692196900,15.11519677734375,0.11239911615848541,0.05253437161445618,-0.11728604137897491
1770950141711165400,15.13416552734375,0.02626718580722809,0.09285144507884979,-0.14172062277793884
1770950141730134500,15.153134521484375,-0.040317077189683914,0.07819069176912308,-0.24006985127925873
1770950141749103000,15.17210302734375,-0.05497783049941063,0.1380554437637329,-0.4062250852584839
1770950141768072000,15.191072021484375,-0.07452550530433655,0.2926042377948761,-0.6047561168670654
1770950141787040800,15.210040771484374,-0.03237583488225937,0.41844236850738525,-0.7189878225326538
1770950141806009300,15.22900927734375,0.15515965223312378,0.4166097939014435,-0.618806004524231
1770950141824978200,15.247978271484374,0.21380266547203064,0.2987128794193268,-0.4159989058971405
1770950141843947000,15.266947021484375,0,0.21441353857517242,-0.17348559200763702
1770950141862915800,15.285915771484374,-0.4221075773239136,0.14477495849132538,-0.09590577334165573
1770950141881884400,15.304884521484375,-0.730594277381897,0.23396120965480804,-0.11728604137897491
1770950141900853200,15.323853271484374,-0.7183769941329956,0.277332603931427,-0.09162971377372742
1770950141919822000,15.342822021484375,-0.4862483739852905,0.1380554437637329,0.024434590712189674
1770950141938790700,15.361790771484374,-0.19730933010578156,-0.0873536616563797,0.1331685185432434
1770950141957759700,15.380759765625,0.031154103577136993,-0.09957095980644226,0.20952661335468292
1770950141976728300,15.399728271484374,0.05253437161445618,-0.09101885557174683,0.2406807243824005
1770950141995697200,15.418697265625,-0.05558869615197182,-0.15638138353824615,0.2620609998703003
1770950142014666000,15.437666015625,-0.22724169492721558,-0.28588470816612244,0.2516762912273407
1770950142033634600,15.456634521484375,-0.3958403766155243,-0.36651885509490967,0.20891575515270233
1770950142052603400,15.475603271484376,-0.4728093445301056,-0.35674503445625305,0.19120067358016968
1770950142071572200,15.494572265625,-0.42821621894836426,-0.33658650517463684,0.23762640357017517
1770950142090540800,15.513540771484376,-0.33719736337661743,-0.3634645342826843,0.3023780584335327
1770950142109509600,15.532509521484375,-0.30543237924575806,-0.33108872175216675,0.31642794609069824
1770950142128478500,15.551478515625,-0.3481929302215576,-0.31093016266822815,0.2919933497905731
1770950142147447300,15.570447265625,-0.4166097939014435,-0.26939135789871216,0.22357651591300964
1770950142166416000,15.589415771484376,-0.47036588191986084,-0.2101374864578247,0.12217295914888382
1770950142185384700,15.608384765625,-0.45448338985443115,-0.14049890637397766,0.0513126403093338
1770950142204353300,15.627353271484376,-0.3640754222869873,-0.06475166976451874,0.043371398001909256
1770950142223322000,15.646322021484375,-0.25045454502105713,0.05864302068948746,0.1441640853881836
1770950142242291000,15.665291015625,-0.17653992772102356,0.16859868168830872,0.185092031955719
1770950142261259800,15.684259765625,-0.19730933010578156,0.17592905461788177,0.10506874322891235
1770950142280228600,15.703228515625,-0.23762640357017517,0.2412915825843811,0.006719512399286032
1770950142299197200,15.722197265625,-0.25350889563560486,0.2968802750110626,-0.10751219838857651
1770950142318166000,15.741166015625,-0.15088360011577606,0.3439168632030487,-0.17287473380565643
1770950142337134800,15.760134765625,0.10079269111156464,0.3652971386909485,-0.10018182545900345
1770950142356103400,15.779103515625,0.1698204129934311,0.08613193035125732,-0.14660754799842834
1770950142375072300,15.798072265625,0.07024945318698883,-0.03237583488225937,-0.29138249158859253
1770950142403525400,15.826525390625,-0.05803215503692627,0.37690356373786926,-0.27977606654167175
1770950142422494200,15.845494140625,0.19303326308727264,0.4361574649810791,-0.07147117704153061
1770950142441462800,15.864462890625,0.47586366534233093,0.01954767294228077,0.10751219838857651
1770950142460431600,15.883431640625,0.5943714380264282,-0.4575377106666565,0.19608759880065918
1770950142479400400,15.902400390625,0.47586366534233093,-0.5601630210876465,0.12767073512077332
1770950142498369000,15.921369140625,0.268169641494751,-0.18264856934547424,-0.07819069176912308
1770950142517337900,15.940337890625,0.11056652665138245,0.23518294095993042,-0.27366742491722107
1770950142536306700,15.959306640625,0.0256563201546669,0.5045742988586426,-0.4172206521034241
1770950142555275300,15.978275146484375,0.007941242307424545,0.6212494969367981,-0.4563159942626953
1770950142574244000,15.997244140625,0.053756099194288254,0.6841685771942139,-0.3433060050010681
1770950142593213000,16.016212890625,0.10751219838857651,0.6554579138755798,-0.09529490768909454
1770950142612181500,16.035181396484376,0.15515965223312378,0.4880809485912323,0.12034036219120026
1770950142631150300,16.054150390625,0.27855435013771057,0.21807873249053955,0.30054548382759094
1770950142650119200,16.073119140625,0.4520399272441864,-0.026878049597144127,0.4471530318260193
1770950142669087700,16.092087646484377,0.5955931544303894,-0.12705987691879272,0.5027416944503784
1770950142688056600,16.111056640625,0.6017017960548401,-0.08796452730894089,0.4422661066055298
1770950142707025400,16.130025390625,0.45326167345046997,0.009773836471140385,0.29626941680908203
1770950142725994000,16.148993896484374,0.2620609998703003,0.06780599057674408,0.18692462146282196
1770950142744962800,16.167962890625,0.1288924664258957,0.06841685622930527,0.10079269111156464
1770950142763931600,16.186931640625,0.07757982611656189,0.11178825795650482,-0.02626718580722809
1770950142782900200,16.205900146484375,0.07147117704153061,0.1893680840730667,-0.1288924664258957
1770950142801869000,16.224869140625,0.06230820715427399,0.1893680840730667,-0.1948658674955368
1770950142820837600,16.243837646484376,0.047036588191986084,0.16065743565559387,-0.2632827162742615
1770950142839806500,16.262806396484375,0.01588248461484909,0.12156209349632263,-0.41355544328689575
1770950142858775300,16.281775390625,0.04520399495959282,0.09834922850131989,-0.583375871181488
1770950142877744000,16.300744140625,0.24984370172023773,0.06352993845939636,-0.554665207862854
1770950142896712700,16.319712646484376,0.3225366175174713,0.013439024798572063,-0.41294458508491516
1770950142915681300,16.338681396484375,0.10079269111156464,0.21380266547203064,-0.1594357043504715
1770950142934650000,16.357650146484374,-0.4001164436340332,0.37262752652168274,-0.0977383628487587
1770950142953619000,16.376618896484374,-0.841160774230957,0.43860089778900146,-0.24251331388950348
1770950142972587800,16.395587890625,-1.0177006721496582,0.2565632164478302,-0.500298261642456
1770950142991556400,16.414556396484375,-0.9517273306846619,0.10201441496610641,-0.778241753578186
1770950143010525200,16.433525146484374,-0.6652317643165588,0.06291907280683517,-0.8307760953903198
1770950143029493800,16.45249365234375,-0.07941242307424545,0.18325942754745483,-0.5778780579566956
1770950143048462600,16.471462646484376,0.46425724029541016,0.1533270627260208,-0.24556763470172882
1770950143067431200,16.49043115234375,0.6640099883079529,0.020769402384757996,0.001832594396546483
1770950143086400000,16.50939990234375,0.4477638900279999,-0.16310089826583862,0.12705987691879272
1770950143105368800,16.528368896484373,0.0513126403093338,-0.3854556679725647,0.18692462146282196
1770950143124337400,16.54733740234375,-0.21258094906806946,-0.546113133430481,0.20280711352825165
1770950143143306200,16.56630615234375,-0.26389357447624207,-0.5540543794631958,0.3127627670764923
1770950143162274800,16.58527490234375,-0.205861434340477,-0.44837474822998047,0.5119046568870544
1770950143181243600,16.60424365234375,-0.13927717506885529,-0.40744680166244507,0.711046576499939
1770950143200212200,16.623212158203124,-0.15515965223312378,-0.44348782300949097,0.7837395071983337
1770950143219181000,16.64218115234375,-0.24923282861709595,-0.47525280714035034,0.6945532560348511
1770950143238150000,16.66114990234375,-0.370184063911438,-0.44837474822998047,0.4789179861545563
1770950143257118500,16.680118408203125,-0.4105011224746704,-0.3243691921234131,0.19181154668331146
1770950143276087300,16.69908740234375,-0.3750709891319275,-0.1588248461484909,-0.07635809481143951
1770950143295056000,16.718055908203127,-0.3488037884235382,0.05070177838206291,-0.2620609998703003
1770950143314024700,16.737024658203126,-0.35796675086021423,0.2107483446598053,-0.26022839546203613
1770950143332993500,16.75599365234375,-0.3952295184135437,0.23212862014770508,-0.11056652665138245
1770950143351962000,16.774962158203124,-0.35674503445625305,0.07147117704153061,-0.02260199747979641
1770950143370931000,16.793930908203127,-0.2614501118659973,-0.12217295914888382,-0.09407317638397217
1770950143389899500,16.8128994140625,-0.16187916696071625,-0.15638138353824615,-0.2663370370864868
1770950143408868400,16.831868408203125,-0.13744457066059113,-0.013439024798572063,-0.4520399272441864
1770950143427837000,16.8508369140625,-0.2052505612373352,0.17043127119541168,-0.6352993845939636
1770950143446805800,16.8698056640625,-0.15699224174022675,0.26450446248054504,-0.6310232877731323
1770950143465774300,16.8887744140625,0.0922405794262886,0.21135921776294708,-0.24984370172023773
1770950143484743200,16.9077431640625,0.19425499439239502,-0.05925388261675835,0.3341430425643921
1770950143503712000,16.9267119140625,0.21868959069252014,-0.3610210716724396,0.842382550239563
1770950143522680600,16.9456806640625,0.2052505612373352,-0.7757982611656189,0.9950987100601196
1770950143541649400,16.9646494140625,0.0409279391169548,-1.0818414688110352,0.44837474822998047
1770950143560618000,16.983617919921876,0.000610864779446274,-0.6401863098144531,-0.4465421438217163
1770950143579586800,17.0025869140625,0.12095122784376144,-0.25961753726005554,-1.0885610580444336
1770950143598555400,17.021555419921874,0.35185810923576355,-0.1178968995809555,-1.0781763792037964
1770950143617524200,17.040524169921873,0.7293725609779358,0.05742128938436508,-0.5619956254959106
1770950143636492800,17.059492919921876,1.0409135818481445,-0.001832594396546483,0.11545344442129135
1770950143655461600,17.078461669921875,1.0207550525665283,-0.1948658674955368,0.4618137776851654
1770950143674430200,17.09743017578125,0.8002328872680664,-0.35185810923576355,0.31459537148475647
1770950143693399000,17.11639892578125,0.6273581385612488,-0.23823726177215576,0.004276053514331579
1770950143712367600,17.13536767578125,0.5968148708343506,-0.031154103577136993,-0.1997527778148651
1770950143731336400,17.15433642578125,0.6078104376792908,0.12705987691879272,-0.24556763470172882
1770950143750305000,17.173304931640626,0.5467239618301392,0.19120067358016968,-0.20158538222312927
1770950143769273900,17.19227392578125,0.45875945687294006,0.2565632164478302,-0.09834922850131989
1770950143788242400,17.211242431640624,0.3946186602115631,0.27000224590301514,-0.01588248461484909
1770950143807211300,17.230211181640627,0.389120876789093,0.24984370172023773,0.043371398001909256
1770950143826179800,17.249179931640626,0.43432486057281494,0.2309068888425827,0.09346231073141098
1770950143845148700,17.268148681640625,0.5332849621772766,0.24312418699264526,0.16310089826583862
1770950143864117200,17.2871171875,0.6786707639694214,0.268169641494751,0.28954991698265076
1770950143883086000,17.306086181640627,0.8454368710517883,0.29016077518463135,0.4984656572341919
1770950143902054700,17.3250546875,0.9938769936561584,0.2406807243824005,0.6774490475654602
1770950143921023500,17.3440234375,1.062904715538025,0.09590577334165573,0.7635809779167175
1770950143939992000,17.362991943359376,1.0806198120117188,-0.036651886999607086,0.7867938280105591
1770950143958961000,17.3819609375,1.035415768623352,-0.05070177838206291,0.7067705392837524
1770950143977929500,17.400929443359374,0.9187406301498413,-0.07513637095689774,0.4990765154361725
1770950143996898000,17.41989794921875,0.7599157691001892,-0.15210533142089844,0.13133592903614044
1770950144015867000,17.438866943359375,0.6157516837120056,-0.10506874322891235,-0.24251331388950348
1770950144034835500,17.45783544921875,0.5198459029197693,0.06414080411195755,-0.46608981490135193
1770950144053804300,17.47680419921875,0.49541133642196655,0.23457208275794983,-0.48013970255851746
1770950144072772900,17.49577294921875,0.5705476999282837,0.2406807243824005,-0.28954991698265076
1770950144091741700,17.51474169921875,0.647516667842865,0.2309068888425827,0.11362084746360779
1770950144110710300,17.533710205078126,0.6255255341529846,0.360410213470459,0.6145299673080444
1770950144129679000,17.55267919921875,0.4251618981361389,0.5277871489524841,0.8466585874557495
1770950144148647700,17.571647705078124,-0.029932374134659767,0.6597339510917664,0.565049946308136
1770950144167616500,17.590616455078123,-0.5913171172142029,0.6969966888427734,-0.13500112295150757
1770950144186585000,17.609585205078126,-0.7825177907943726,0.7990111112594604,-0.7177661061286926
1770950144205554000,17.628553955078125,-0.4935787320137024,0.8943060636520386,-0.7819069027900696
1770950144224522500,17.6475224609375,-0.04825831577181816,0.6456840634346008,-0.5766563415527344
1770950144243491000,17.666490966796875,0.4514290690422058,0.5283980369567871,-0.268169641494751
1770950144262460000,17.6854599609375,0.6817250847816467,0.27488914132118225,-0.14477495849132538
1770950144281428500,17.704428466796877,0.7086031436920166,0.10079269111156464,-0.09957095980644226
1770950144300397300,17.723397216796876,0.6108647584915161,0.10201441496610641,-0.1490510106086731
1770950144319366000,17.742365966796875,0.49480047821998596,0.21197007596492767,-0.22357651591300964
1770950144338334500,17.76133447265625,0.43982264399528503,0.3127627670764923,-0.24862197041511536
1770950144357303300,17.78030322265625,0.46425724029541016,0.34208428859710693,-0.18692462146282196
1770950144376272000,17.79927197265625,0.5473348498344421,0.328645259141922,-0.029932374134659767
1770950144395240400,17.818240478515627,0.6291907429695129,0.32070401310920715,0.21441353857517242
1770950144414209300,17.837209228515626,0.6389645338058472,0.36835145950317383,0.39889469742774963
1770950144433177900,17.856177734375,0.5790998339653015,0.43371400237083435,0.43921178579330444
1770950144452146700,17.875146728515624,0.44409868121147156,0.5534434914588928,0.2883281707763672
1770950144471115300,17.894115234375,0.2663370370864868,0.6609556674957275,0.06902772188186646
1770950144490084000,17.913083984375,0.07391463965177536,0.758083164691925,-0.07452550530433655
1770950144509052700,17.932052734375,-0.0873536616563797,0.9107993841171265,-0.12400554865598679
1770950144528021500,17.951021484375,-0.16737695038318634,1.0720677375793457,-0.17531819641590118
1770950144546990000,17.969989990234374,-0.16310089826583862,1.145371437072754,-0.23335035145282745
1770950144565958700,17.988958740234374,-0.0824667438864708,1.1612539291381836,-0.3634645342826843
1770950144584927200,18.00792724609375,0.08918625861406326,1.0916153192520142,-0.5161807537078857
1770950144603896000,18.02689599609375,0.2932150959968567,0.9089667797088623,-0.6536253094673157
1770950144622864600,18.04586474609375,0.6267472505569458,0.7910698652267456,-0.6346884965896606
1770950144641833500,18.06483349609375,1.0409135818481445,0.9944878816604614,-0.3023780584335327
1770950144660802000,18.083802001953124,1.2186752557754517,1.056185245513916,-0.012217295356094837
1770950144679771000,18.10277099609375,1.130099892616272,0.9022472500801086,0.05497783049941063
1770950144698739500,18.121739501953126,1.0329723358154297,0.8258891701698303,0.14110976457595825
1770950144717708000,18.1407080078125,1.1380411386489868,0.6194168925285339,0.37690356373786926
1770950144736676600,18.159676513671876,1.275485634803772,0.19120067358016968,0.4111120104789734
1770950144755645400,18.1786455078125,1.360395908355713,-0.2877173125743866,0.06475166976451874
1770950144774614000,18.197614013671874,1.3041963577270508,-0.4526508152484894,-0.35063639283180237
1770950144793582800,18.216582763671877,1.100778341293335,-0.2522871494293213,-0.5797106623649597
1770950144812551400,18.235551513671876,0.8631519079208374,0.10445787757635117,-0.7257073521614075
1770950144831520000,18.25452001953125,0.6493492722511292,0.45448338985443115,-0.7959567904472351
1770950144850488600,18.273488525390626,0.46364638209342957,0.7507528066635132,-0.7654135823249817
1770950144869457400,18.29245751953125,0.3243691921234131,0.8930842876434326,-0.7024945020675659
1770950144888426000,18.311426025390624,0.3231474757194519,0.896138608455658,-0.5968148708343506
1770950144907394600,18.33039453125,0.48441576957702637,0.6994401812553406,-0.4416552484035492
1770950144926363400,18.34936328125,0.685390293598175,0.2926042377948761,-0.24740023910999298
1770950144945332000,18.36833203125,0.748920202255249,-0.2614501118659973,-0.014049889519810677
1770950144964300500,18.387300537109375,0.6731730103492737,-0.7916807532310486,0.1692095398902893
1770950144983269400,18.406269287109374,0.5241219997406006,-1.1331541538238525,0.2712239623069763
1770950145002238000,18.425238037109374,0.3298669755458832,-1.1294889450073242,0.24984370172023773
1770950145021206800,18.444206787109376,0.11362084746360779,-0.7971785664558411,0.09590577334165573
1770950145040175400,18.46317529296875,-0.10445787757635117,-0.3451386094093323,-0.09101885557174683
1770950145059144000,18.48214404296875,-0.31520622968673706,-0.08002328872680664,-0.19181154668331146
1770950145078112800,18.50111279296875,-0.500298261642456,-0.09834922850131989,-0.1893680840730667
1770950145097081300,18.520081298828124,-0.5754346251487732,-0.19242240488529205,-0.08979712426662445
1770950145116050000,18.5390498046875,-0.4978547990322113,-0.2822195291519165,-0.020769402384757996
1770950145135018500,18.5580185546875,-0.3035998046398163,-0.38789913058280945,-0.10201441496610641
1770950145153987300,18.5769873046875,-0.2614501118659973,-0.5888736248016357,-0.2779434621334076
1770950145172956000,18.595955810546876,-0.4929678738117218,-0.8863648176193237,-0.3555232882499695
1770950145191924500,18.614924560546875,-0.8674280047416687,-1.1740821599960327,-0.3347539007663727
1770950145210893000,18.63389306640625,-1.0030399560928345,-1.3225222826004028,-0.23273947834968567
1770950145229862000,18.65286181640625,-0.7232639193534851,-1.515555500984192,-0.006108647678047419
1770950145248830500,18.67183056640625,-0.14477495849132538,-1.5949679613113403,0.3958403766155243
1770950145267799300,18.69079931640625,0.4508182108402252,-1.3829978704452515,0.8124501705169678
1770950145286767900,18.709767822265626,0.7373138070106506,-0.9553925395011902,0.9456186890602112
1770950145305736400,18.728736328125,0.5821541547775269,-0.536339282989502,0.7446441650390625
1770950145324705000,18.747705078125,0.09651663154363632,-0.16187916696071625,0.37812530994415283
1770950145343673900,18.766673828125,-0.4159989058971405,0.15638138353824615,-0.018325943499803543
1770950145362642400,18.785642333984374,-0.6224712133407593,0.3335321843624115,-0.13133592903614044
1770950145381611000,18.804611083984376,-0.6230821013450623,0.3243691921234131,0.004886918235570192
1770950145400579800,18.823579833984375,-0.47464191913604736,0.17837251722812653,0.27916520833969116
1770950145419548200,18.842548095703126,-0.3433060050010681,0.01282816007733345,0.5589412450790405
1770950145438517000,18.86151708984375,-0.2626718580722809,-0.06230820715427399,0.7079922556877136
1770950145457485600,18.880485595703124,-0.27488914132118225,0.001832594396546483,0.7079922556877136
1770950145476454100,18.8994541015625,-0.3597993552684784,0.14233149588108063,0.6359102129936218
1770950145495423000,18.918423095703126,-0.462424635887146,0.25900667905807495,0.48991355299949646
1770950145514391600,18.9373916015625,-0.564439058303833,0.33597561717033386,0.30970844626426697
1770950145533360000,18.956360107421876,-0.6615665555000305,0.4007273018360138,0.13500112295150757
1770950145552328700,18.97532861328125,-0.7641918659210205,0.5033525824546814,-0.07513637095689774
1770950145571297500,18.994297607421874,-0.823445737361908,0.7715222239494324,-0.1899789422750473
1770950145590266000,19.01326611328125,-0.7531962990760803,1.0195332765579224,-0.13500112295150757
1770950145609234700,19.032234619140624,-0.5235111117362976,1.1056652069091797,0.018325943499803543
1770950145628203300,19.051203369140627,-0.23457208275794983,0.8808670043945312,0.15027274191379547
1770950145647172000,19.070172119140626,0.04764745384454727,0.4679224193096161,0.2565632164478302
1770950145666140700,19.089140625,0.14049890637397766,-0.09590577334165573,0.1954767256975174
1770950145685109200,19.108109130859376,0.06291907280683517,-0.2987128794193268,0.05436696484684944
1770950145704078000,19.127078125,-0.06902772188186646,-0.010384701192378998,0.10934479534626007
1770950145723046400,19.14604638671875,-0.033597562462091446,0.2932150959968567,0.31459537148475647
1770950145742015200,19.16501513671875,0.23029601573944092,0.09040798991918564,0.4569268524646759
1770950145760983800,19.18398388671875,0.5143481492996216,-0.4147771894931793,0.4269944727420807
1770950145779952400,19.202952392578126,0.6200277805328369,-0.7513636946678162,0.26389357447624207
1770950145798921000,19.2219208984375,0.5381718873977661,-0.6328558921813965,0.14110976457595825
1770950145817889800,19.240889892578124,0.3597993552684784,-0.36285367608070374,-0.014049889519810677
1770950145836858400,19.2598583984375,0.12705987691879272,-0.20158538222312927,-0.22296564280986786
1770950145855827000,19.278826904296874,-0.13988803327083588,-0.2162461280822754,-0.4929678738117218
1770950145874795800,19.297795654296873,-0.36712974309921265,-0.22968515753746033,-0.7483093738555908
1770950145893764000,19.31676416015625,-0.37812530994415283,-0.18325942754745483,-0.7984002828598022
1770950145912733000,19.33573291015625,-0.2205221801996231,-0.11117739230394363,-0.6701186895370483
1770950145931701500,19.354701416015626,0.08429934084415436,-0.056199558079242706,-0.4166097939014435
1770950145950670000,19.373670166015625,0.4874700903892517,0.01649334840476513,-0.020769402384757996
1770950145969639000,19.392638916015624,0.7391464114189148,-0.1948658674955368,0.33719736337661743
1770950145988607500,19.411607421875,0.7849612236022949,-0.37262752652168274,0.4929678738117218
1770950146007576000,19.430576171875,0.6866120100021362,-0.4355465769767761,0.4050033390522003
1770950146026544600,19.449544677734377,0.48991355299949646,-0.27366742491722107,0.16554436087608337
1770950146045513200,19.46851318359375,0.24006985127925873,0.013439024798572063,-0.08491020649671555
1770950146064481800,19.487481689453126,-0.030543239787220955,0.33047783374786377,-0.19120067358016968
1770950146083450600,19.50645068359375,-0.21258094906806946,0.4740310609340668,-0.19853104650974274
1770950146102419200,19.525419189453125,-0.3035998046398163,0.46425724029541016,-0.25900667905807495
1770950146121387800,19.5443876953125,-0.360410213470459,0.3646862804889679,-0.4111120104789734
1770950146140356600,19.563356689453126,-0.3585776388645172,0.3396408259868622,-0.6169734001159668
1770950146159325200,19.5823251953125,-0.16615521907806396,0.40317076444625854,-0.7660244107246399
1770950146178293800,19.601293701171876,0.008552107028663158,0.5027416944503784,-0.8167262077331543
1770950146197262300,19.620262451171875,-0.06414080411195755,0.5998691916465759,-0.7293725609779358
1770950146216231000,19.63923095703125,-0.46364638209342957,0.5375609993934631,-0.5778780579566956
1770950146235199700,19.65819970703125,-0.7641918659210205,0.4667007029056549,-0.38667741417884827
1770950146254168300,19.677168212890624,-0.6719512343406677,0.30543237924575806,-0.1185077652335167
1770950146273137000,19.696136962890623,-0.32620179653167725,0.001221729558892548,0.205861434340477
1770950146292105500,19.71510546875,0.06047561392188072,-0.29016077518463135,0.4410443603992462
1770950146311074300,19.73407421875,0.3066541254520416,-0.3958403766155243,0.4459312856197357
1770950146330043000,19.75304296875,0.3139844834804535,-0.25534147024154663,0.3549124300479889
1770950146349011500,19.772011474609375,0.10934479534626007,-0.19303326308727264,0.3078758418560028
1770950146367980000,19.79097998046875,-0.16187916696071625,-0.25473061203956604,0.3127627670764923
1770950146386948600,19.809948486328125,-0.33231043815612793,-0.3090975880622864,0.3292561173439026
1770950146405917400,19.82891748046875,-0.347582072019577,-0.32192572951316833,0.34086254239082336
1770950146424886000,19.847885986328127,-0.28954991698265076,-0.29016077518463135,0.318871408700943
1770950146443854600,19.8668544921875,-0.23884813487529755,-0.19425499439239502,0.2419024556875229
1770950146462823200,19.8858232421875,-0.2620609998703003,-0.07513637095689774,0.09590577334165573
1770950146481791700,19.904791748046875,-0.33169957995414734,0.03237583488225937,-0.06963858753442764
1770950146500760600,19.923760498046875,-0.4068359434604645,0.1698204129934311,-0.17898337543010712
1770950146519729200,19.942729248046874,-0.4477638900279999,0.3078758418560028,-0.15149445831775665
1770950146538697700,19.96169775390625,-0.47464191913604736,0.35185810923576355,-0.034208428114652634
1770950146557666300,19.980666259765623,-0.516791582107544,0.37690356373786926,-0.0054977829568088055
1770950146576635100,19.99963525390625,-0.5790998339653015,0.4263836145401001,-0.023823726922273636
1770950146595603700,20.018603759765625,-0.6212494969367981,0.46364638209342957,-0.010995565913617611
1770950146614572300,20.037572265625,-0.5693259835243225,0.4312705397605896,-0.001221729558892548
1770950146633540900,20.056540771484375,-0.3652971386909485,0.34208428859710693,0.02871064469218254
1770950146652509400,20.075509521484374,-0.09712749719619751,0.1594357043504715,0.03481929376721382
1770950146671478300,20.094478271484373,0.1545487940311432,0.10995566099882126,0.001221729558892548
1770950146690446800,20.11344677734375,0.24251331388950348,0.05436696484684944,-0.17653992772102356
1770950146709415400,20.13241552734375,0.17531819641590118,0.15638138353824615,-0.4764745235443115
1770950146728384000,20.151384033203126,0.02260199747979641,0.337808221578598,-0.7134900689125061
1770950146747352800,20.170352783203125,0.06597339361906052,0.4153880476951599,-0.6218603253364563
1770950146766321400,20.1893212890625,0.3170388340950012,-0.034208428114652634,-0.30115634202957153
1770950146785290000,20.2082900390625,0.5968148708343506,-0.6328558921813965,0.16187916696071625
1770950146804258800,20.2272587890625,0.7812960743904114,-1.0512982606887817,0.43860089778900146
1770950146823227400,20.246227294921876,0.6688969135284424,-0.9920443892478943,0.21135921776294708
1770950146842196000,20.265196044921876,0.4612029194831848,-0.5772672295570374,-0.24006985127925873
1770950146861164500,20.28416455078125,0.34697118401527405,-0.19242240488529205,-0.5558869242668152
1770950146880133000,20.303133056640625,0.34086254239082336,0,-0.6786707639694214
1770950146899101700,20.322101806640624,0.37140578031539917,0.06352993845939636,-0.5314523577690125
1770950146918070500,20.341070556640624,0.3066541254520416,-0.10079269111156464,-0.23396120965480804
1770950146937039000,20.3600390625,0.20158538222312927,-0.32009315490722656,0.056199558079242706
1770950146956007700,20.379007568359373,0.17715078592300415,-0.4514290690422058,0.24312418699264526
1770950146974976500,20.3979765625,0.27977606654167175,-0.49052441120147705,0.32192572951316833
1770950146993945000,20.416945068359375,0.4416552484035492,-0.4825831651687622,0.31581708788871765
1770950147012913700,20.43591357421875,0.5332849621772766,-0.35796675086021423,0.22357651591300964
1770950147031882200,20.45488232421875,0.48013970255851746,-0.18142683804035187,0.09040798991918564
1770950147050851000,20.47385107421875,0.2816086709499359,-0.09101885557174683,0.03176496922969818
1770950147069819600,20.492819580078127,0.04764745384454727,-0.05864302068948746,0.04886918142437935
1770950147088788200,20.511788330078126,-0.07391463965177536,-0.03909534588456154,0.11484257876873016
1770950147107756800,20.5307568359375,-0.08796452730894089,0.010995565913617611,0.14110976457595825
1770950147126725400,20.549725341796876,-0.12156209349632263,0.0360410213470459,0.03848448023200035
1770950147145694200,20.568694091796875,-0.1692095398902893,0.06047561392188072,-0.143553227186203
1770950147164662800,20.587662841796874,-0.15638138353824615,0.08429934084415436,-0.31520622968673706
1770950147183631400,20.60663134765625,-0.01893680728971958,0.049480047076940536,-0.4312705397605896
1770950147202600000,20.625599853515624,0.053145237267017365,0.07269290834665298,-0.5106829404830933
1770950147221568800,20.64456884765625,-0.11117739230394363,0.22174391150474548,-0.5125155448913574
1770950147240537300,20.663537353515625,-0.5094612240791321,0.27427828311920166,-0.4776962697505951
1770950147259506000,20.682505859375,-0.6847794055938721,0.2461785078048706,-0.3952295184135437
1770950147278474800,20.701474853515624,-0.5174024701118469,-0.008552107028663158,-0.24251331388950348
1770950147297443300,20.720443359375,-0.16859868168830872,-0.2467893660068512,0.07452550530433655
1770950147316412000,20.739411865234374,0.24556763470172882,-0.33597561717033386,0.40866854786872864
1770950147335380500,20.75838037109375,0.43371400237083435,-0.2919933497905731,0.48013970255851746
1770950147354349000,20.77734912109375,0.33719736337661743,-0.18142683804035187,0.3494146466255188
1770950147373317600,20.796317626953126,0.04825831577181816,-0.12278381735086441,0.20280711352825165
1770950147392286500,20.815286376953125,-0.2205221801996231,-0.10140355676412582,0.12583814561367035
1770950147411255000,20.834255126953124,-0.37690356373786926,-0.06414080411195755,0.05192350596189499
1770950147430223600,20.8532236328125,-0.4373791813850403,0.06230820715427399,-0.01893680728971958
1770950147449192400,20.8721923828125,-0.41844236850738525,0.1649334877729416,-0.015271619893610477
1770950147468161000,20.8911611328125,-0.35185810923576355,0.17653992772102356,0.004276053514331579
1770950147487129600,20.910129638671876,-0.3139844834804535,0.10995566099882126,-0.02626718580722809
1770950147506098200,20.92909814453125,-0.3329212963581085,0.08429934084415436,-0.06536252796649933
1770950147525067000,20.94806689453125,-0.3750709891319275,0.11117739230394363,-0.10995566099882126
1770950147544035600,20.96703564453125,-0.4373791813850403,0.20341797173023224,-0.09590577334165573
1770950147563004200,20.986004150390624,-0.4740310609340668,0.2767217457294464,0.03848448023200035
1770950147581972700,21.00497265625,-0.4251618981361389,0.2919933497905731,0.25534147024154663
1770950147600941300,21.02394140625,-0.33169957995414734,0.25961753726005554,0.42821621894836426
1770950147619910100,21.04291015625,-0.26389357447624207,0.23212862014770508,0.44470956921577454
1770950147638878700,21.061878662109375,-0.18264856934547424,0.2834412455558777,0.3958403766155243
1770950147657847300,21.080847412109375,-0.10506874322891235,0.2614501118659973,0.29504770040512085
1770950147676816000,21.09981591796875,-0.009162971749901772,0.14049890637397766,0.11606431007385254
1770950147695784700,21.11878466796875,0.034208428114652634,-0.03176496922969818,-0.10018182545900345
1770950147714753300,21.137753173828123,-0.01649334840476513,-0.05497783049941063,-0.2834412455558777
1770950147733721900,21.156721923828126,-0.09101885557174683,0.11423171311616898,-0.32192572951316833
1770950147752690400,21.1756904296875,-0.08002328872680664,0.09590577334165573,-0.1130099818110466
1770950147771659000,21.194658935546876,0.14294235408306122,0.008552107028663158,0.30543237924575806
1770950147790627800,21.2136279296875,0.39828383922576904,-0.23396120965480804,0.6243038177490234
1770950147809596400,21.232596435546874,0.6640099883079529,-0.42088583111763,0.6872228980064392
1770950147828565000,21.25156494140625,0.8600975871086121,-0.14782927930355072,0.41783151030540466
1770950147847533600,21.270533447265624,0.9834923148155212,0.21319180727005005,-0.08918625861406326
1770950147866502100,21.289502197265627,0.9932661056518555,0.4734202027320862,-0.5949822664260864
1770950147885471000,21.308470947265626,0.8943060636520386,0.5815432667732239,-0.7226530313491821
1770950147904439600,21.327439453125,0.6798924803733826,0.5913171172142029,-0.5601630210876465
1770950147923408100,21.346408203125,0.4416552484035492,0.5619956254959106,-0.3494146466255188
1770950147942376700,21.365376708984375,0.22418737411499023,0.5082395076751709,-0.21746785938739777
1770950147961345500,21.384345458984374,0.11178825795650482,0.3610210716724396,-0.1954767256975174
1770950147980314000,21.403314208984376,0.12767073512077332,0.2101374864578247,-0.2516762912273407
1770950147999282700,21.42228271484375,0.22235478460788727,0.025045456364750862,-0.337808221578598
1770950148018251300,21.441251220703126,0.35246896743774414,0.01649334840476513,-0.5119046568870544
1770950148037219800,21.4602197265625,0.34574946761131287,0.02260199747979641,-0.6414080262184143
1770950148056188400,21.4791884765625,0.17592905461788177,0.1692095398902893,-0.6359102129936218
1770950148075157200,21.4981572265625,-0.08368847519159317,0.4111120104789734,-0.4972439408302307
1770950148094125800,21.517125732421874,-0.2864955961704254,0.5668824911117554,-0.2877173125743866
1770950148113094400,21.536094482421873,-0.34574946761131287,0.4612029194831848,-0.14599667489528656
1770950148132063000,21.55506298828125,-0.32681265473365784,0.2779434621334076,-0.12767073512077332
1770950148151031800,21.57403173828125,-0.2528980076313019,0.2406807243824005,-0.1337793916463852
1770950148170000400,21.59300048828125,-0.07941242307424545,0.23335035145282745,-0.025045456364750862
1770950148188969000,21.611968994140625,0.17776164412498474,0.08063415437936783,0.1496618688106537
1770950148207937500,21.6309375,0.26939135789871216,-0.13439024984836578,0.3231474757194519
1770950148226906000,21.649906005859375,0.07880155742168427,-0.10751219838857651,0.5051851868629456
1770950148245875000,21.668875,-0.23029601573944092,-0.06475166976451874,0.6597339510917664
1770950148264843300,21.68784326171875,-0.5253437161445618,-0.12705987691879272,0.6139190793037415
1770950148283812600,21.7068125,-0.6114756464958191,-0.1282816082239151,0.41844236850738525
1770950148302780700,21.72578076171875,-0.4776962697505951,-0.15210533142089844,0.2675587832927704
1770950148321749200,21.744749267578126,-0.18387030065059662,-0.1747073233127594,0.3127627670764923
1770950148340718000,21.763718017578125,0.11972949653863907,-0.24801109731197357,0.4526508152484894
1770950148359686400,21.782686279296875,0.2981020212173462,-0.4257727563381195,0.4874700903892517
1770950148378655200,21.8016552734375,0.2834412455558777,-0.2718348205089569,0.3078758418560028
1770950148397623800,21.820623779296874,0.05803215503692627,-0.09590577334165573,0.05070177838206291
1770950148416592400,21.83959228515625,-0.20891575515270233,-0.04581485688686371,0.029932374134659767
1770950148435561000,21.85856103515625,-0.28527384996414185,-0.10384701192378998,0.2052505612373352
1770950148454529500,21.877529541015626,-0.22357651591300964,-0.30115634202957153,0.4373791813850403
1770950148473498400,21.896498291015625,-0.12522727251052856,-0.33719736337661743,0.6707295179367065
1770950148492466700,21.915466796875,-0.1026252806186676,-0.12950333952903748,0.8405499458312988
1770950148511435500,21.934435546875,-0.18387030065059662,-0.006108647678047419,0.8454368710517883
1770950148530404000,21.953404052734374,-0.2712239623069763,-0.059864748269319534,0.7855721116065979
1770950148549372700,21.97237255859375,-0.31031930446624756,-0.0977383628487587,0.7464767694473267
1770950148568341200,21.99134130859375,-0.277332603931427,-0.16615521907806396,0.7012727856636047
1770950148587309800,22.010309814453127,-0.23762640357017517,-0.2516762912273407,0.6432406306266785
1770950148606278700,22.029278564453126,-0.22968515753746033,-0.2522871494293213,0.5986474752426147
1770950148625247200,22.048247314453125,-0.2816086709499359,-0.1441640853881836,0.5534434914588928
1770950148644215800,22.0672158203125,-0.3597993552684784,0.09407317638397217,0.5131264328956604
1770950148663184400,22.086184326171875,-0.31642794609069824,0.30604326725006104,0.4373791813850403
1770950148682153000,22.105153076171874,-0.15577052533626556,0.3176496922969818,0.22968515753746033
1770950148701121500,22.12412158203125,0.09712749719619751,0.10323614627122879,-0.06536252796649933
1770950148720090000,22.143090087890624,0.25411975383758545,-0.23335035145282745,-0.40805765986442566
1770950148739058700,22.16205859375,0.23212862014770508,-0.3426951467990875,-0.6798924803733826
1770950148758027500,22.181027587890625,0.021991131827235222,-0.06230820715427399,-0.7519745230674744
1770950148776996000,22.19999609375,0.026878049597144127,0.17898337543010712,-0.5687150955200195
1770950148795964700,22.218964599609375,0.36224281787872314,0.12767073512077332,-0.1802051067352295
1770950148814933200,22.237933349609374,0.7751874327659607,-0.19242240488529205,0.17776164412498474
1770950148833901800,22.25690185546875,1.046411395072937,-0.4318813979625702,0.25350889563560486
1770950148852870400,22.275870361328124,1.0592395067214966,-0.3836230933666229,0.014049889519810677
1770950148871839000,22.2948388671875,0.9187406301498413,-0.15210533142089844,-0.3634645342826843
1770950148890807600,22.3138076171875,0.7318159937858582,0.05925388261675835,-0.667064368724823
1770950148909776100,22.332776123046877,0.5613847374916077,0.20219624042510986,-0.7892373204231262
1770950148928745000,22.351744873046876,0.4465421438217163,0.3133736252784729,-0.740368127822876
1770950148947713300,22.37071337890625,0.42271843552589417,0.3549124300479889,-0.573602020740509
1770950148966682000,22.38968212890625,0.472198486328125,0.34574946761131287,-0.35246896743774414
1770950148985650700,22.408650634765625,0.5320632457733154,0.23762640357017517,-0.15760311484336853
1770950149004619300,22.427619384765624,0.5790998339653015,0.07391463965177536,-0.039706211537122726
1770950149023587800,22.446587890625,0.5919279456138611,-0.07086031138896942,-0.007941242307424545
1770950149042556400,22.465556396484374,0.5283980369567871,-0.10384701192378998,-0.02932151034474373
1770950149061525000,22.48452490234375,0.40805765986442566,-0.009162971749901772,-0.0360410213470459
1770950149080493600,22.50349365234375,0.24434591829776764,0.04886918142437935,-0.06475166976451874
1770950149099462100,22.522462158203126,0.06597339361906052,0.1233946830034256,-0.0977383628487587
1770950149118430700,22.5414306640625,-0.12217295914888382,0.10934479534626007,-0.22296564280986786
1770950149137399300,22.5603994140625,-0.33536475896835327,0.08307760953903198,-0.42271843552589417
1770950149156368000,22.579367919921875,-0.5247328281402588,0.22907429933547974,-0.526565432548523
1770950149175336400,22.59833642578125,-0.5577195286750793,0.32009315490722656,-0.5412262082099915
1770950149194305000,22.617304931640625,-0.4312705397605896,0.2864955961704254,-0.5790998339653015
1770950149213273600,22.636273681640624,-0.19914191961288452,0.2528980076313019,-0.6768381595611572
1770950149232242200,22.6552421875,-0.020158538594841957,0.39400777220726013,-0.730594277381897
1770950149251210800,22.674210693359374,0.10323614627122879,0.6163625717163086,-0.667064368724823
1770950149270179300,22.693179443359377,0.0769689604640007,0.6432406306266785,-0.5442805290222168
1770950149289148000,22.71214794921875,-0.15149445831775665,0.5668824911117554,-0.3500255048274994
1770950149308116500,22.731116455078126,-0.24923282861709595,0.34697118401527405,-0.15760311484336853
1770950149327085000,22.7500849609375,-0.023212861269712448,0.08857539296150208,0.08002328872680664
1770950149346053600,22.7690537109375,0.4324922561645508,-0.07330377399921417,0.3555232882499695
1770950149365022200,22.788022216796875,0.7690787315368652,-0.09346231073141098,0.5180133581161499
1770950149383990800,22.80699072265625,0.8356630206108093,0.02260199747979641,0.4984656572341919
1770950149402959400,22.82595947265625,0.6774490475654602,0.1747073233127594,0.36712974309921265
1770950149421928000,22.844927978515624,0.4068359434604645,0.25961753726005554,0.21441353857517242
1770950149440896500,22.863896484375,0.16798780858516693,0.2608392536640167,0.14172062277793884
1770950149459865000,22.882864990234374,0.05497783049941063,0.1496618688106537,0.18325942754745483
1770950149478833700,22.901833740234373,0.05742128938436508,-0.010995565913617611,0.3072649836540222
1770950149497802200,22.92080224609375,0.09040798991918564,-0.14110976457595825,0.4886918365955353
1770950149516770800,22.939770751953127,0.07086031138896942,-0.25473061203956604,0.646905779838562
1770950149535739400,22.958739501953126,-0.01282816007733345,-0.3280344009399414,0.7018836140632629
1770950149554708000,22.9777080078125,-0.11056652665138245,-0.3903425931930542,0.6126973628997803
1770950149573676500,22.996676513671876,-0.21685700118541718,-0.3836230933666229,0.4422661066055298
1770950149592645000,23.01564501953125,-0.3035998046398163,-0.2919933497905731,0.3066541254520416
1770950149611613700,23.03461376953125,-0.35796675086021423,-0.17653992772102356,0.22846342623233795
1770950149630582300,23.053582275390625,-0.3970620930194855,0.001832594396546483,0.2052505612373352
1770950149649550800,23.07255078125,-0.4379900395870209,0.14233149588108063,0.1740964651107788
1770950149668519400,23.09151953125,-0.4514290690422058,0.25045454502105713,0.13561198115348816
1770950149687488000,23.110488037109373,-0.3799578845500946,0.3066541254520416,0.08796452730894089
1770950149706456600,23.12945654296875,-0.21135921776294708,0.347582072019577,0.030543239787220955
1770950149725425200,23.148425048828123,0.16554436087608337,0.5369501113891602,-0.0054977829568088055
1770950149744393500,23.1673935546875,0.5809323787689209,0.6194168925285339,-0.11239911615848541
1770950149763362000,23.186362060546877,0.7141009569168091,0.6126973628997803,-0.287106454372406
1770950149782330600,23.20533056640625,0.5332849621772766,0.676227331161499,-0.2834412455558777
1770950149801299200,23.22429931640625,0.4416552484035492,0.7434224486351013,0.008552107028663158
1770950149820267800,23.243267822265626,0.6548470258712769,0.5540543794631958,0.36712974309921265
1770950149839236400,23.262236328125,1.0684025287628174,0.16859868168830872,0.5809323787689209
1770950149858205000,23.281204833984376,1.406821608543396,-0.2577849328517914,0.5009090900421143
1770950149877173500,23.300173583984375,1.4269801378250122,-0.34086254239082336,0.2467893660068512
1770950149896142000,23.31914208984375,1.2131774425506592,-0.10445787757635117,0.0030543238390237093
1770950149915110700,23.338110595703125,0.9492838382720947,0.21807873249053955,-0.09529490768909454
1770950149934079200,23.357079345703124,0.7867938280105591,0.4111120104789734,-0.09407317638397217
1770950149953047600,23.376047607421874,0.7428115606307983,0.42882707715034485,-0.07513637095689774
1770950149972016000,23.39501611328125,0.8045089244842529,0.472198486328125,-0.08063415437936783
1770950149990984700,23.413984619140624,0.9083559513092041,0.47036588191986084,-0.07391463965177536
1770950150009953300,23.432953369140623,0.9749401807785034,0.3659079968929291,-0.025045456364750862
1770950150028921900,23.451921875,0.9590576887130737,0.17898337543010712,-0.015271619893610477
1770950150047890400,23.470890380859377,0.8710931539535522,-0.04825831577181816,-0.10384701192378998
1770950150066859000,23.48985888671875,0.7360920310020447,-0.18203771114349365,-0.20280711352825165
1770950150085827300,23.508827392578127,0.5937605500221252,-0.23518294095993042,-0.2107483446598053
1770950150104796000,23.5277958984375,0.40744680166244507,-0.3170388340950012,-0.19242240488529205
1770950150123764500,23.546764404296876,0.1692095398902893,-0.24984370172023773,-0.1594357043504715
1770950150142733000,23.565733154296876,-0.07330377399921417,-0.12217295914888382,-0.07024945318698883
1770950150161701400,23.584701416015626,-0.2767217457294464,0.014049889519810677,0.006108647678047419
1770950150180670000,23.603669921875,-0.4105011224746704,0.04214967042207718,0.024434590712189674
1770950150199638500,23.622638427734376,-0.472198486328125,0.06963858753442764,0.047036588191986084
