time,seconds_elapsed,z,y,x
1770950126799473200,0.22247314453125,8.943750381469727,42.375,48.91875076293945
1770950126819473200,0.24247314453125,8.512500762939453,44.0625,51.656253814697266
1770950126829473300,0.252473388671875,8.40000057220459,44.19375228881836,51.937503814697266
1770950126839473200,0.26247314453125,8.325000762939453,44.34375,52.66875076293945
1770950126849473300,0.272473388671875,8.231250762939453,44.38125228881836,52.875003814697266
1770950126859473200,0.28247314453125,8.418750762939453,44.60625076293945,52.931251525878906
1770950126869473300,0.292473388671875,8.287500381469727,44.868751525878906,52.875003814697266
1770950126879473200,0.30247314453125,7.987500190734863,45.54375076293945,53.04375076293945
1770950126889473300,0.312473388671875,8.175000190734863,45.5625,52.218753814697266
1770950126899473200,0.32247314453125,8.475000381469727,46.087501525878906,50.88750076293945
1770950126909473300,0.332473388671875,8.512500762939453,46.44375228881836,50.17500305175781
1770950126919473200,0.34247314453125,8.512500762939453,46.91250228881836,49.51875305175781
1770950126929473300,0.352473388671875,8.793750762939453,47.587501525878906,48.73125076293945
1770950126939473200,0.36247314453125,8.625,47.64375305175781,48.22500228881836
1770950126949473300,0.372473388671875,8.737500190734863,48.243751525878906,48.60000228881836
1770950126959473200,0.38247314453125,8.77500057220459,48.618751525878906,49.06875228881836
1770950126969473300,0.392473388671875,8.456250190734863,49.20000076293945,49.85625076293945
1770950126979473200,0.40247314453125,8.0625,49.53750228881836,51.13125228881836
1770950126989473300,0.412473388671875,7.875000476837158,50.025001525878906,51.95625305175781
1770950126999473200,0.42247314453125,7.518750190734863,50.08125305175781,52.218753814697266
1770950127009473300,0.432473388671875,7.181250095367432,50.19375228881836,52.95000076293945
1770950127019473200,0.44247314453125,6.956250190734863,50.70000076293945,53.23125076293945
1770950127029473300,0.452473388671875,6.900000095367432,50.55000305175781,52.66875076293945
1770950127039473200,0.46247314453125,6.731250286102295,50.493751525878906,52.23750305175781
1770950127049473300,0.472473388671875,7.106250286102295,50.36250305175781,51.58125305175781
1770950127059473200,0.48247314453125,7.218750476837158,49.968753814697266,51.243751525878906
1770950127069473300,0.492473388671875,7.331250190734863,49.53750228881836,50.625003814697266
1770950127079473200,0.50247314453125,7.781250476837158,49.61250305175781,50.10000228881836
1770950127089473300,0.512473388671875,8.02500057220459,49.368751525878906,49.70625305175781
1770950127099473200,0.52247314453125,8.15625,49.14375305175781,49.837501525878906
1770950127109473300,0.532473388671875,8.381250381469727,49.06875228881836,50.025001525878906
1770950127119473200,0.54247314453125,8.831250190734863,48.78750228881836,50.025001525878906
1770950127129473300,0.552473388671875,8.981250762939453,48.69375228881836,50.17500305175781
1770950127139473200,0.56247314453125,9.075000762939453,48.41250228881836,50.212501525878906
1770950127149473300,0.572473388671875,9.393750190734863,48.45000076293945,50.250003814697266
1770950127159473200,0.58247314453125,9.543750762939453,48.22500228881836,50.36250305175781
1770950127169473300,0.592473388671875,9.46875,48.187503814697266,50.51250076293945
1770950127179473200,0.60247314453125,9.881250381469727,48.16875076293945,50.212501525878906
1770950127189473300,0.612473388671875,10.106250762939453,47.868751525878906,49.593753814697266
1770950127199473200,0.62247314453125,10.387500762939453,47.8125,49.48125076293945
1770950127209473300,0.632473388671875,10.387500762939453,47.775001525878906,49.80000305175781
1770950127219473200,0.64247314453125,10.668750762939453,47.8125,50.04375076293945
1770950127229473300,0.652473388671875,10.725000381469727,47.71875,50.26875305175781
1770950127239473200,0.66247314453125,10.74375057220459,47.493751525878906,49.95000076293945
1770950127249473300,0.672473388671875,10.912500381469727,47.51250076293945,49.687503814697266
1770950127259473200,0.68247314453125,10.818750381469727,47.32500076293945,49.80000305175781
1770950127269473300,0.692473388671875,10.706250190734863,47.26875305175781,50.26875305175781
1770950127279473200,0.70247314453125,10.575000762939453,47.38125228881836,50.156253814697266
1770950127289473300,0.712473388671875,10.46250057220459,47.25,49.650001525878906
1770950127299473200,0.72247314453125,10.18125057220459,47.38125228881836,49.51875305175781
1770950127309473300,0.732473388671875,10.350000381469727,47.56875228881836,48.91875076293945
1770950127319473200,0.74247314453125,10.800000190734863,47.83125305175781,48.937503814697266
1770950127329473300,0.752473388671875,11.325000762939453,47.70000076293945,48.11250305175781
1770950127339473200,0.76247314453125,11.456250190734863,48,47.92500305175781
1770950127349473300,0.772473388671875,11.193750381469727,48.525001525878906,48
1770950127359473200,0.78247314453125,11.49375057220459,48.618751525878906,48.337501525878906
1770950127369473300,0.792473388671875,11.700000762939453,48.91875076293945,48.468753814697266
1770950127379473200,0.80247314453125,11.737500190734863,48.86250305175781,48.375003814697266
1770950127389473300,0.812473388671875,11.568750381469727,48.58125305175781,48.95625305175781
1770950127399473200,0.82247314453125,11.287500381469727,48.35625076293945,49.20000076293945
1770950127409473300,0.832473388671875,10.725000381469727,48.187503814697266,50.400001525878906
1770950127419473200,0.84247314453125,10.575000762939453,47.83125305175781,50.531253814697266
1770950127429473300,0.852473388671875,10.93125057220459,47.25,50.681251525878906
1770950127439473200,0.86247314453125,10.725000381469727,47.00625228881836,50.718753814697266
1770950127449473300,0.872473388671875,10.893750190734863,46.462501525878906,50.70000076293945
1770950127459473200,0.88247314453125,11.0625,46.275001525878906,50.73750305175781
1770950127469473300,0.892473388671875,11.15625,45.9375,50.85000228881836
1770950127479473200,0.90247314453125,11.193750381469727,45.78750228881836,51.35625076293945
1770950127489473300,0.912473388671875,11.643750190734863,45.712501525878906,51.093753814697266
1770950127499473200,0.92247314453125,11.77500057220459,45.39375305175781,51.03750228881836
1770950127509473300,0.932473388671875,11.887500762939453,45.20625305175781,50.60625076293945
1770950127519473200,0.94247314453125,12.375000953674316,44.75625228881836,50.38125228881836
1770950127529473300,0.952473388671875,12.450000762939453,44.775001525878906,50.73750305175781
1770950127539473200,0.96247314453125,12.543750762939453,44.38125228881836,50.718753814697266
1770950127549473300,0.972473388671875,12.52500057220459,44.587501525878906,50.868751525878906
1770950127559473200,0.98247314453125,12.862500190734863,44.28750228881836,50.51250076293945
1770950127569473300,0.992473388671875,13.125000953674316,44.17500305175781,50.718753814697266
1770950127579473200,1.00247314453125,13.200000762939453,44.118751525878906,50.83125305175781
1770950127589473300,1.012473388671875,13.443750381469727,43.837501525878906,50.85000228881836
1770950127599473200,1.02247314453125,13.256250381469727,43.650001525878906,50.45625305175781
1770950127609473300,1.032473388671875,13.218750953674316,43.05000305175781,49.275001525878906
1770950127619473200,1.04247314453125,13.818750381469727,42.993751525878906,48.26250076293945
1770950127629473300,1.052473388671875,14.193750381469727,42.48750305175781,46.650001525878906
1770950127639473200,1.06247314453125,14.21250057220459,42.48750305175781,46.51875305175781
1770950127649473300,1.072473388671875,14.193750381469727,42.243751525878906,45.86250305175781
1770950127659473200,1.08247314453125,14.30625057220459,42.09375,45.67500305175781
1770950127689473300,1.112473388671875,14.418750762939453,42.97500228881836,47.10000228881836
1770950127699473200,1.12247314453125,14.11875057220459,43.181251525878906,48.243751525878906
1770950127709473300,1.132473388671875,13.950000762939453,43.59375,49.51875305175781
1770950127719473200,1.14247314453125,13.818750381469727,43.78125,49.91250228881836
1770950127729473300,1.152473388671875,13.74375057220459,44.025001525878906,50.156253814697266
1770950127739473200,1.16247314453125,13.968750953674316,44.13750076293945,50.10000228881836
1770950127749473300,1.172473388671875,14.006250381469727,44.10000228881836,50.400001525878906
1770950127759473200,1.18247314453125,14.250000953674316,44.212501525878906,50.587501525878906
1770950127769473300,1.192473388671875,14.475000381469727,44.32500076293945,50.70000076293945
1770950127779473200,1.20247314453125,14.643750190734863,44.36250305175781,50.60625076293945
1770950127789473300,1.212473388671875,14.812500953674316,44.493751525878906,50.587501525878906
1770950127799473200,1.22247314453125,15.000000953674316,44.56875228881836,50.32500076293945
1770950127809473300,1.232473388671875,15.075000762939453,44.587501525878906,50.66250228881836
1770950127819473200,1.24247314453125,15.018750190734863,44.98125076293945,50.94375228881836
1770950127829473300,1.252473388671875,15.131250381469727,45.01875305175781,50.38125228881836
1770950127839473200,1.26247314453125,15.131250381469727,45.16875076293945,50.26875305175781
1770950127849473300,1.272473388671875,14.68125057220459,45.39375305175781,50.36250305175781
1770950127859473200,1.28247314453125,14.343750953674316,45.75,50.531253814697266
1770950127869473300,1.292473388671875,14.343750953674316,45.69375228881836,50.73750305175781
1770950127879473200,1.30247314453125,14.02500057220459,46.10625076293945,51.093753814697266
1770950127889473300,1.312473388671875,13.781250953674316,46.125,51.187503814697266
1770950127899473200,1.32247314453125,13.575000762939453,45.91875076293945,51.375003814697266
1770950127909473300,1.332473388671875,13.312500953674316,46.181251525878906,52.25625228881836
1770950127919473200,1.34247314453125,13.012500762939453,46.3125,52.89375305175781
1770950127929473300,1.352473388671875,13.18125057220459,46.01250076293945,52.89375305175781
1770950127939473200,1.36247314453125,13.143750190734863,45.806251525878906,53.13750076293945
1770950127949473300,1.372473388671875,13.18125057220459,45.5625,52.91250228881836
1770950127959473200,1.38247314453125,13.425000190734863,45.13125228881836,52.556251525878906
1770950127969473300,1.392473388671875,13.575000762939453,44.83125305175781,52.10625076293945
1770950127979473200,1.40247314453125,13.968750953674316,44.625,51.562503814697266
1770950127989473300,1.412473388671875,14.175000190734863,44.41875076293945,50.98125076293945
1770950127999473200,1.42247314453125,14.231250762939453,44.400001525878906,50.493751525878906
1770950128009473300,1.432473388671875,14.49375057220459,44.55000305175781,50.025001525878906
1770950128019473200,1.44247314453125,14.756250381469727,44.36250305175781,49.51875305175781
1770950128029473300,1.452473388671875,14.737500190734863,44.587501525878906,49.48125076293945
1770950128039473200,1.46247314453125,14.812500953674316,44.51250076293945,48.97500228881836
1770950128049473300,1.472473388671875,14.981250762939453,44.70000076293945,48.76875305175781
1770950128059473200,1.48247314453125,15.131250381469727,45,48.900001525878906
1770950128069473300,1.492473388671875,15.318750381469727,44.868751525878906,48.618751525878906
1770950128079473200,1.50247314453125,15.206250190734863,44.90625,48.993751525878906
1770950128089473300,1.512473388671875,14.96250057220459,45.13125228881836,49.593753814697266
1770950128099473200,1.52247314453125,14.568750381469727,45.35625076293945,50.04375076293945
1770950128109473300,1.532473388671875,14.625000953674316,45.30000305175781,50.38125228881836
1770950128119473200,1.54247314453125,14.531250953674316,45.48750305175781,51.11250305175781
1770950128129473300,1.552473388671875,14.456250190734863,45.45000076293945,51.67500305175781
1770950128139473200,1.56247314453125,14.156250953674316,45.30000305175781,51.900001525878906
1770950128149473300,1.572473388671875,13.893750190734863,45.35625076293945,52.687503814697266
1770950128159473200,1.58247314453125,13.968750953674316,45.22500228881836,52.556251525878906
1770950128169473300,1.592473388671875,14.02500057220459,45.01875305175781,52.593753814697266
1770950128179473200,1.60247314453125,14.343750953674316,44.92500305175781,52.51875305175781
1770950128189473300,1.612473388671875,14.418750762939453,45.03750228881836,52.875003814697266
1770950128199473200,1.62247314453125,14.231250762939453,44.79375076293945,53.212501525878906
1770950128209473300,1.632473388671875,14.062500953674316,44.94375228881836,53.75625228881836
1770950128219473200,1.64247314453125,13.818750381469727,44.94375228881836,54.562503814697266
1770950128229473300,1.652473388671875,13.668750762939453,44.70000076293945,54.67500305175781
1770950128239473200,1.66247314453125,13.856250762939453,44.38125228881836,54.618751525878906
1770950128249473300,1.672473388671875,13.893750190734863,43.89375305175781,54.468753814697266
1770950128259473200,1.68247314453125,13.912500381469727,43.38750076293945,53.85000228881836
1770950128269473300,1.692473388671875,13.893750190734863,43.10625076293945,53.343753814697266
1770950128279473200,1.70247314453125,14.006250381469727,43.03125,52.80000305175781
1770950128289473300,1.712473388671875,14.02500057220459,42.73125076293945,52.462501525878906
1770950128299473200,1.72247314453125,14.437500953674316,42.41250228881836,51.937503814697266
1770950128309473300,1.732473388671875,14.606250762939453,42.31875228881836,51.54375076293945
1770950128319473200,1.74247314453125,14.700000762939453,42.39375305175781,51.76875305175781
1770950128329473300,1.752473388671875,15.000000953674316,42.337501525878906,51.60000228881836
1770950128339473200,1.76247314453125,15.000000953674316,42.337501525878906,52.29375076293945
1770950128349473300,1.772473388671875,15.093750953674316,41.85000228881836,52.38750076293945
1770950128359473200,1.78247314453125,15.43125057220459,41.587501525878906,52.968753814697266
1770950128369473300,1.792473388671875,15.543750762939453,40.91250228881836,52.76250076293945
1770950128379473200,1.80247314453125,15.750000953674316,40.743751525878906,52.556251525878906
1770950128389473300,1.812473388671875,15.862500190734863,40.23750305175781,52.66875076293945
1770950128399473200,1.82247314453125,16.068750381469727,39.806251525878906,52.462501525878906
1770950128409473300,1.832473388671875,15.768750190734863,39.48750305175781,52.556251525878906
1770950128419473200,1.84247314453125,15.975000381469727,39.243751525878906,52.38750076293945
1770950128429473300,1.852473388671875,15.975000381469727,39.09375,52.44375228881836
1770950128439473200,1.86247314453125,15.90000057220459,38.85000228881836,52.05000305175781
1770950128449473300,1.872473388671875,15.956250190734863,38.962501525878906,52.29375076293945
1770950128459473200,1.88247314453125,16.05000114440918,38.45625305175781,52.42500305175781
1770950128469473300,1.892473388671875,16.14375114440918,38.23125076293945,52.29375076293945
1770950128479473200,1.90247314453125,16.23750114440918,37.81875228881836,52.650001525878906
1770950128489473300,1.912473388671875,16.5,37.556251525878906,52.875003814697266
1770950128499473200,1.92247314453125,16.6875,37.125,52.80000305175781
1770950128509473300,1.932473388671875,16.875,36.76875305175781,52.837501525878906
1770950128519473200,1.94247314453125,17.043750762939453,36.243751525878906,52.650001525878906
1770950128529473300,1.952473388671875,17.306251525878906,35.75625228881836,52.61250305175781
1770950128539473200,1.96247314453125,17.306251525878906,35.681251525878906,52.593753814697266
1770950128549473300,1.972473388671875,17.625,35.64375305175781,52.593753814697266
1770950128559473200,1.98247314453125,17.418750762939453,35.75625228881836,52.25625228881836
1770950128569473300,1.992473388671875,17.625,35.66250228881836,52.25625228881836
1770950128579473200,2.00247314453125,17.493751525878906,35.53125,52.406253814697266
1770950128589473300,2.012473388671875,17.64375114440918,35.32500076293945,52.33125305175781
1770950128599473200,2.02247314453125,17.92500114440918,35.34375,52.368751525878906
1770950128609473300,2.032473388671875,18.28125,35.28750228881836,51.993751525878906
1770950128619473200,2.04247314453125,18.375,34.96875,51.41250228881836
1770950128629473300,2.052473388671875,18.337501525878906,34.72500228881836,51.22500228881836
1770950128639473200,2.06247314453125,18.65625,34.51875305175781,50.906253814697266
1770950128649473300,2.072473388671875,18.881250381469727,34.368751525878906,50.493751525878906
1770950128659473200,2.08247314453125,18.881250381469727,34.29375076293945,50.08125305175781
1770950128669473300,2.092473388671875,18.693750381469727,34.21875,49.98750305175781
1770950128679473200,2.10247314453125,18.5625,34.42500305175781,49.76250076293945
1770950128689473300,2.112473388671875,18.262500762939453,34.48125076293945,49.53750228881836
1770950128699473200,2.12247314453125,18.337501525878906,34.72500228881836,49.05000305175781
1770950128709473300,2.132473388671875,18.525001525878906,34.76250076293945,49.087501525878906
1770950128719473200,2.14247314453125,18.618751525878906,34.53750228881836,48.86250305175781
1770950128729473300,2.152473388671875,18.30000114440918,34.44375228881836,48.67500305175781
1770950128739473200,2.16247314453125,18.318750381469727,34.53750228881836,48.91875076293945
1770950128749473300,2.172473388671875,18.431251525878906,34.61250305175781,48.63750076293945
1770950128759473200,2.18247314453125,18.48750114440918,34.40625,48.78750228881836
1770950128769473300,2.192473388671875,18.356250762939453,34.462501525878906,49.16250228881836
1770950128779473200,2.20247314453125,18.168750762939453,34.38750076293945,49.837501525878906
1770950128789473300,2.212473388671875,17.793750762939453,34.53750228881836,49.743751525878906
1770950128799473200,2.22247314453125,17.325000762939453,34.6875,50.00625228881836
1770950128809473300,2.232473388671875,17.137500762939453,34.91250228881836,50.00625228881836
1770950128819473200,2.24247314453125,17.0625,35.025001525878906,49.875003814697266
1770950128829473300,2.252473388671875,16.856250762939453,35.47500228881836,49.80000305175781
1770950128839473200,2.26247314453125,16.631250381469727,35.70000076293945,49.51875305175781
1770950128849473300,2.272473388671875,16.443750381469727,35.90625,48.993751525878906
1770950128859473200,2.28247314453125,16.61250114440918,36.243751525878906,48.63750076293945
1770950128869473300,2.292473388671875,16.59375,36.337501525878906,48.26250076293945
1770950128879473200,2.30247314453125,16.80000114440918,36.712501525878906,48.056251525878906
1770950128889473300,2.312473388671875,16.61250114440918,37.06875228881836,47.868751525878906
1770950128899473200,2.32247314453125,16.40625,37.556251525878906,47.868751525878906
1770950128909473300,2.332473388671875,16.162500381469727,37.556251525878906,47.66250228881836
1770950128919473200,2.34247314453125,15.750000953674316,37.98750305175781,48.03750228881836
1770950128929473300,2.352473388671875,15.52500057220459,38.118751525878906,48.30000305175781
1770950128939473200,2.36247314453125,15.112500190734863,38.23125076293945,48.35625076293945
1770950128949473300,2.372473388671875,15.05625057220459,38.51250076293945,48.30000305175781
1770950128959473200,2.38247314453125,14.58750057220459,38.962501525878906,48.281253814697266
1770950128969473300,2.392473388671875,14.475000381469727,39.13125228881836,48.525001525878906
1770950128979473200,2.40247314453125,14.137500762939453,39.31875228881836,48.45000076293945
1770950128989473300,2.412473388671875,13.856250762939453,39.54375076293945,48.843753814697266
1770950128999473200,2.42247314453125,13.875000953674316,39.48750305175781,48.431251525878906
1770950129009473300,2.432473388671875,13.800000190734863,39.78750228881836,48.45000076293945
1770950129019473200,2.44247314453125,13.781250953674316,40.125,48.243751525878906
1770950129029473300,2.452473388671875,13.875000953674316,40.20000076293945,47.306251525878906
1770950129039473200,2.46247314453125,13.968750953674316,40.25625228881836,46.70625305175781
1770950129049473300,2.472473388671875,14.043750762939453,40.14375305175781,46.125
1770950129059473200,2.48247314453125,14.137500762939453,40.03125,45.97500228881836
1770950129069473300,2.492473388671875,14.21250057220459,40.33125305175781,45.86250305175781
1770950129079473200,2.50247314453125,14.062500953674316,40.6875,45.88125228881836
1770950129089473300,2.512473388671875,14.081250190734863,40.72500228881836,45.82500076293945
1770950129099473200,2.52247314453125,13.800000190734863,40.931251525878906,46.087501525878906
1770950129109473300,2.532473388671875,13.125000953674316,41.10000228881836,47.34375
1770950129119473200,2.54247314453125,12.468750953674316,41.25,48.093753814697266
1770950129129473300,2.552473388671875,11.981250762939453,41.94375228881836,48.91875076293945
1770950129139473200,2.56247314453125,11.756250381469727,42.35625076293945,49.275001525878906
1770950129149473300,2.572473388671875,11.662500381469727,42.63750076293945,49.406253814697266
1770950129159473200,2.58247314453125,11.418750762939453,42.69375228881836,49.500003814697266
1770950129169473300,2.592473388671875,11.043750762939453,43.01250076293945,49.743751525878906
1770950129179473200,2.60247314453125,10.78125,43.25625228881836,50.00625228881836
1770950129189473300,2.612473388671875,10.762500762939453,43.57500076293945,50.08125305175781
1770950129199473200,2.62247314453125,10.856250762939453,43.63125228881836,50.062503814697266
1770950129209473300,2.632473388671875,10.856250762939453,43.6875,49.72500228881836
1770950129219473200,2.64247314453125,10.762500762939453,43.61250305175781,49.38750076293945
1770950129229473300,2.652473388671875,10.800000190734863,43.5,49.14375305175781
1770950129239473200,2.66247314453125,10.83750057220459,43.66875076293945,49.218753814697266
1770950129249473300,2.672473388671875,10.725000381469727,43.91250228881836,49.16250228881836
1770950129259473200,2.68247314453125,10.668750762939453,44.118751525878906,49.275001525878906
1770950129269473300,2.692473388671875,10.40625,44.26875305175781,49.29375076293945
1770950129279473200,2.70247314453125,10.200000762939453,44.47500228881836,49.500003814697266
1770950129289473300,2.712473388671875,10.125,44.41875076293945,49.875003814697266
1770950129299473200,2.72247314453125,9.825000762939453,44.587501525878906,50.38125228881836
1770950129309473300,2.732473388671875,9.487500190734863,44.64375305175781,50.98125076293945
1770950129319473200,2.74247314453125,9.225000381469727,44.587501525878906,51.337501525878906
1770950129329473300,2.752473388671875,9.112500190734863,44.60625076293945,51.67500305175781
1770950129339473200,2.76247314453125,8.925000190734863,44.28750228881836,51.806251525878906
1770950129349473300,2.772473388671875,8.887500762939453,44.19375228881836,52.14375305175781
1770950129359473200,2.78247314453125,9.075000762939453,43.875,52.275001525878906
1770950129369473300,2.792473388671875,9.037500381469727,43.42500305175781,52.25625228881836
1770950129379473200,2.80247314453125,9.075000762939453,43.275001525878906,52.14375305175781
1770950129389473300,2.812473388671875,9.09375,43.3125,51.937503814697266
1770950129399473200,2.82247314453125,9.15000057220459,43.23750305175781,51.750003814697266
1770950129409473300,2.832473388671875,9.543750762939453,42.84375,50.812503814697266
1770950129419473200,2.84247314453125,9.90000057220459,42.63750076293945,50.400001525878906
1770950129429473300,2.852473388671875,10.143750190734863,42.48750305175781,49.968753814697266
1770950129439473200,2.86247314453125,10.256250381469727,42.45000076293945,49.33125305175781
1770950129449473300,2.872473388671875,10.387500762939453,42.60000228881836,49.06875228881836
1770950129459473200,2.88247314453125,10.55625057220459,42.431251525878906,48.88125228881836
1770950129469473300,2.892473388671875,10.5,42.30000305175781,48.50625228881836
1770950129479473200,2.90247314453125,10.74375057220459,42.30000305175781,48.281253814697266
1770950129489473300,2.912473388671875,10.18125057220459,42.243751525878906,48.712501525878906
1770950129499473200,2.92247314453125,10.125,42.30000305175781,48.67500305175781
1770950129509473300,2.932473388671875,9.881250381469727,42.1875,48.45000076293945
1770950129519473200,2.94247314453125,9.506250381469727,42.22500228881836,48.58125305175781
1770950129529473300,2.952473388671875,9.225000381469727,42.150001525878906,48.750003814697266
1770950129539473200,2.96247314453125,9.225000381469727,42.26250076293945,48.86250305175781
1770950129549473300,2.972473388671875,9.206250190734863,42.056251525878906,49.05000305175781
1770950129559473200,2.98247314453125,8.96250057220459,41.73750305175781,49.181251525878906
1770950129569473300,2.992473388671875,9.356250762939453,41.60625076293945,49.16250228881836
1770950129579473200,3.00247314453125,9.131250381469727,41.493751525878906,49.181251525878906
1770950129589473300,3.012473388671875,9.225000381469727,41.51250076293945,49.837501525878906
1770950129599473200,3.02247314453125,9.262500762939453,41.47500228881836,50.17500305175781
1770950129609473300,3.032473388671875,9.33750057220459,41.400001525878906,50.493751525878906
1770950129619473200,3.04247314453125,9.15000057220459,41.25,50.75625228881836
1770950129629473300,3.052473388671875,9.037500381469727,41.26875305175781,50.94375228881836
1770950129639473200,3.06247314453125,8.925000190734863,41.28750228881836,51.20625305175781
1770950129649473300,3.072473388671875,8.625,41.23125076293945,51.63750076293945
1770950129659473200,3.08247314453125,8.381250381469727,41.08125305175781,52.087501525878906
1770950129669473300,3.092473388671875,7.931250095367432,40.80000305175781,52.23750305175781
1770950129679473200,3.10247314453125,8.02500057220459,40.53750228881836,52.25625228881836
1770950129689473300,3.112473388671875,8.137500762939453,40.51875305175781,52.25625228881836
1770950129699473200,3.12247314453125,8.043750762939453,40.5,52.44375228881836
1770950129709473300,3.132473388671875,8.15625,40.556251525878906,52.42500305175781
1770950129719473200,3.14247314453125,7.950000286102295,40.40625,52.72500228881836
1770950129729473300,3.152473388671875,7.856250286102295,40.48125076293945,52.968753814697266
1770950129739473200,3.16247314453125,8.02500057220459,40.48125076293945,53.025001525878906
1770950129749473300,3.172473388671875,8.606250762939453,40.368751525878906,52.72500228881836
1770950129759473200,3.18247314453125,8.418750762939453,40.275001525878906,52.81875228881836
1770950129769473300,3.192473388671875,8.137500762939453,40.21875,52.95000076293945
1770950129779473200,3.20247314453125,8.15625,40.05000305175781,52.76250076293945
1770950129789473300,3.212473388671875,7.818750381469727,40.01250076293945,53.19375228881836
1770950129799473200,3.22247314453125,7.706250190734863,39.97500228881836,53.212501525878906
1770950129809473300,3.232473388671875,7.612500190734863,39.86250305175781,53.32500076293945
1770950129819473200,3.24247314453125,7.331250190734863,39.86250305175781,53.70000076293945
1770950129829473300,3.252473388671875,7.087500095367432,39.91875076293945,53.88750076293945
1770950129839473200,3.26247314453125,7.350000381469727,40.01250076293945,53.88750076293945
1770950129849473300,3.272473388671875,7.350000381469727,39.73125076293945,53.531253814697266
1770950129859473200,3.28247314453125,7.200000286102295,39.60000228881836,53.85000228881836
1770950129869473300,3.292473388671875,7.162500381469727,39.375,54.000003814697266
1770950129879473200,3.30247314453125,7.387500286102295,39.431251525878906,53.812503814697266
1770950129889473300,3.312473388671875,7.481250286102295,39.39375305175781,53.437503814697266
1770950129899473200,3.32247314453125,7.725000381469727,39.337501525878906,53.118751525878906
1770950129909473300,3.332473388671875,7.987500190734863,39.60000228881836,52.98750305175781
1770950129919473200,3.34247314453125,7.706250190734863,39.45000076293945,53.08125305175781
1770950129929473300,3.352473388671875,8.0625,39.48750305175781,53.13750076293945
1770950129939473200,3.36247314453125,8.456250190734863,39.48750305175781,52.38750076293945
1770950129949473300,3.372473388671875,8.887500762939453,39.69375228881836,52.031253814697266
1770950129959473200,3.38247314453125,9.09375,39.712501525878906,51.95625305175781
1770950129969473300,3.392473388671875,9.28125,40.03125,52.125003814697266
1770950129979473200,3.40247314453125,9.356250762939453,40.16250228881836,52.031253814697266
1770950129989473300,3.412473388671875,8.925000190734863,40.10625076293945,52.125003814697266
1770950129999473200,3.42247314453125,8.831250190734863,40.23750305175781,51.97500228881836
1770950130009473300,3.432473388671875,8.58750057220459,40.5,52.16250228881836
1770950130019473200,3.44247314453125,8.325000762939453,40.556251525878906,52.20000076293945
1770950130029473300,3.452473388671875,8.193750381469727,40.556251525878906,51.88125228881836
1770950130039473200,3.46247314453125,8.175000190734863,40.25625228881836,51.281253814697266
1770950130049473300,3.472473388671875,8.30625057220459,39.900001525878906,50.681251525878906
1770950130059473200,3.48247314453125,8.15625,39.78750228881836,50.343753814697266
1770950130069473300,3.492473388671875,8.137500762939453,39.50625228881836,50.23125076293945
1770950130079473200,3.50247314453125,8.21250057220459,39.525001525878906,50.212501525878906
1770950130089473300,3.512473388671875,8.006250381469727,39.35625076293945,49.931251525878906
1770950130099473200,3.52247314453125,7.950000286102295,39.337501525878906,50.10000228881836
1770950130109473300,3.532473388671875,7.762500286102295,39.056251525878906,50.212501525878906
1770950130119473200,3.54247314453125,7.668750286102295,39.35625076293945,50.70000076293945
1770950130129473300,3.552473388671875,7.518750190734863,39.28125,51.093753814697266
1770950130139473200,3.56247314453125,7.612500190734863,39.20625305175781,51.337501525878906
1770950130149473300,3.572473388671875,8.043750762939453,39.31875228881836,51.375003814697266
1770950130159473200,3.58247314453125,8.15625,39.375,51.45000076293945
1770950130169473300,3.592473388671875,8.362500190734863,39.431251525878906,51.63750076293945
1770950130179473200,3.60247314453125,8.71875,39.41250228881836,51.73125076293945
1770950130189473300,3.612473388671875,9,39.58125305175781,51.843753814697266
1770950130199473200,3.62247314453125,9.018750190734863,39.375,51.95625305175781
1770950130209473300,3.632473388671875,8.943750381469727,39.16875076293945,51.95625305175781
1770950130219473200,3.64247314453125,8.8125,39.22500228881836,52.05000305175781
1770950130229473300,3.652473388671875,8.512500762939453,38.90625,51.993751525878906
1770950130239473200,3.66247314453125,8.606250762939453,38.587501525878906,52.01250076293945
1770950130249473300,3.672473388671875,8.625,38.400001525878906,51.97500228881836
1770950130259473200,3.68247314453125,8.662500381469727,38.08125305175781,51.562503814697266
1770950130269473300,3.692473388671875,8.606250762939453,37.91250228881836,51.375003814697266
1770950130279473200,3.70247314453125,8.53125,37.59375,51.20625305175781
1770950130289473300,3.712473388671875,8.831250190734863,37.57500076293945,51.093753814697266
1770950130299473200,3.72247314453125,9.09375,37.35000228881836,51.093753814697266
1770950130309473300,3.732473388671875,9.450000762939453,37.35000228881836,50.98125076293945
1770950130319473200,3.74247314453125,9.5625,37.20000076293945,50.73750305175781
1770950130329473300,3.752473388671875,9.65625,37.10625076293945,50.64375305175781
1770950130339473200,3.76247314453125,9.543750762939453,37.23750305175781,51.150001525878906
1770950130349473300,3.772473388671875,9.487500190734863,36.97500228881836,51.26250076293945
1770950130359473200,3.78247314453125,9.262500762939453,37.25625228881836,51.76875305175781
1770950130369473300,3.792473388671875,8.850000381469727,37.368751525878906,52.35000228881836
1770950130379473200,3.80247314453125,8.58750057220459,37.40625,52.650001525878906
1770950130389473300,3.812473388671875,8.193750381469727,37.44375228881836,52.98750305175781
1770950130399473200,3.82247314453125,7.931250095367432,37.40625,53.250003814697266
1770950130409473300,3.832473388671875,7.968750476837158,37.51875305175781,53.681251525878906
1770950130419473200,3.84247314453125,8.02500057220459,37.76250076293945,53.92500305175781
1770950130429473300,3.852473388671875,8.193750381469727,38.15625,54.337501525878906
1770950130439473200,3.86247314453125,8.325000762939453,38.13750076293945,54.093753814697266
1770950130449473300,3.872473388671875,8.512500762939453,38.10000228881836,53.79375076293945
1770950130459473200,3.88247314453125,8.606250762939453,38.00625228881836,53.51250076293945
1770950130469473300,3.892473388671875,8.8125,38.04375076293945,53.625003814697266
1770950130479473200,3.90247314453125,8.77500057220459,38.04375076293945,53.79375076293945
1770950130489473300,3.912473388671875,8.71875,38.00625228881836,53.88750076293945
1770950130499473200,3.92247314453125,8.568750381469727,37.875,53.587501525878906
1770950130509473300,3.932473388671875,8.34375,37.57500076293945,53.47500228881836
1770950130519473200,3.94247314453125,8.475000381469727,37.6875,53.88750076293945
1770950130529473300,3.952473388671875,8.381250381469727,37.70625305175781,53.98125076293945
1770950130539473200,3.96247314453125,8.362500190734863,37.61250305175781,54.07500076293945
1770950130549473300,3.972473388671875,8.268750190734863,37.44375228881836,53.70000076293945
1770950130559473200,3.98247314453125,8.325000762939453,37.275001525878906,53.306251525878906
1770950130569473300,3.992473388671875,8.550000190734863,36.86250305175781,52.80000305175781
1770950130579473200,4.00247314453125,8.625,36.375,52.91250228881836
1770950130589473300,4.012473388671875,8.737500190734863,35.98125076293945,52.98750305175781
1770950130599473200,4.02247314453125,8.887500762939453,35.625,52.781253814697266
1770950130609473300,4.032473388671875,9.05625057220459,35.08125305175781,52.650001525878906
1770950130619473200,4.04247314453125,9.356250762939453,34.85625076293945,52.57500076293945
1770950130629473300,4.052473388671875,9.33750057220459,34.6875,53.08125305175781
1770950130639473200,4.06247314453125,9.375,34.78125,53.66250228881836
1770950130649473300,4.072473388671875,8.925000190734863,34.6875,54.150001525878906
1770950130659473200,4.08247314453125,9.018750190734863,34.76250076293945,54.562503814697266
1770950130669473300,4.092473388671875,9.09375,34.875,54.91875076293945
1770950130679473200,4.10247314453125,9.05625057220459,35.08125305175781,55.312503814697266
1770950130689473300,4.112473388671875,9.15000057220459,35.15625,55.89375305175781
1770950130699473200,4.12247314453125,8.96250057220459,35.118751525878906,56.56875228881836
1770950130709473300,4.132473388671875,8.90625,34.89375305175781,56.92500305175781
1770950130719473200,4.14247314453125,9.05625057220459,34.59375,57.26250076293945
1770950130729473300,4.152473388671875,9.487500190734863,34.63125228881836,57.562503814697266
1770950130739473200,4.16247314453125,9.506250381469727,34.44375228881836,57.69375228881836
1770950130749473300,4.172473388671875,9.46875,34.181251525878906,57.50625228881836
1770950130759473200,4.18247314453125,9.300000190734863,33.82500076293945,57.712501525878906
1770950130769473300,4.192473388671875,9.15000057220459,33.78750228881836,57.67500305175781
1770950130779473200,4.20247314453125,9.05625057220459,33.712501525878906,57.30000305175781
1770950130789473300,4.212473388671875,9.262500762939453,33.806251525878906,57.000003814697266
1770950130799473200,4.22247314453125,9.356250762939453,33.91875076293945,56.83125305175781
1770950130809473300,4.232473388671875,9.206250190734863,33.97500228881836,56.75625228881836
1770950130819473200,4.24247314453125,8.981250762939453,34.125,56.70000076293945
1770950130829473300,4.252473388671875,8.887500762939453,34.25625228881836,56.775001525878906
1770950130839473200,4.26247314453125,8.850000381469727,34.23750305175781,56.38125228881836
1770950130849473300,4.272473388671875,8.96250057220459,34.33125305175781,56.437503814697266
1770950130859473200,4.28247314453125,9,34.59375,56.51250076293945
1770950130869473300,4.292473388671875,9.018750190734863,34.66875076293945,56.66250228881836
1770950130879473200,4.30247314453125,9.018750190734863,34.51875305175781,56.625003814697266
1770950130889473300,4.312473388671875,9.075000762939453,34.42500305175781,56.60625076293945
1770950130899473200,4.32247314453125,9.1875,34.38750076293945,56.38125228881836
1770950130909473300,4.332473388671875,9.15000057220459,34.29375076293945,56.41875076293945
1770950130919473200,4.34247314453125,9.131250381469727,34.275001525878906,56.13750076293945
1770950130929473300,4.352473388671875,9.15000057220459,34.16250228881836,55.875003814697266
1770950130939473200,4.36247314453125,9.206250190734863,33.91875076293945,55.72500228881836
1770950130949473300,4.372473388671875,9.168750762939453,34.29375076293945,55.57500076293945
1770950130959473200,4.38247314453125,9.018750190734863,34.59375,55.33125305175781
1770950130969473300,4.392473388671875,8.756250381469727,34.95000076293945,55.20000076293945
1770950130979473200,4.40247314453125,8.550000190734863,35.25,54.95625305175781
1770950130989473300,4.412473388671875,8.568750381469727,35.51250076293945,54.63750076293945
1770950130999473200,4.42247314453125,8.793750762939453,35.85000228881836,54.900001525878906
1770950131009473300,4.432473388671875,8.77500057220459,35.98125076293945,54.69375228881836
1770950131019473200,4.44247314453125,8.456250190734863,36.13125228881836,54.30000305175781
1770950131029473300,4.452473388671875,8.362500190734863,35.75625228881836,53.775001525878906
1770950131039473200,4.46247314453125,8.58750057220459,35.71875,53.28750228881836
1770950131049473300,4.472473388671875,8.475000381469727,35.8125,52.968753814697266
1770950131059473200,4.48247314453125,8.568750381469727,35.73750305175781,52.91250228881836
1770950131069473300,4.492473388671875,8.625,35.90625,52.72500228881836
1770950131079473200,4.50247314453125,8.606250762939453,35.90625,52.44375228881836
1770950131089473300,4.512473388671875,8.34375,36.30000305175781,52.38750076293945
1770950131099473200,4.52247314453125,8.362500190734863,36.67500305175781,52.70625305175781
1770950131109473300,4.532473388671875,8.175000190734863,37.10625076293945,52.80000305175781
1770950131119473200,4.54247314453125,7.875000476837158,37.23750305175781,52.85625076293945
1770950131129473300,4.552473388671875,8.043750762939453,37.087501525878906,52.98750305175781
1770950131139473200,4.56247314453125,8.006250381469727,37.10625076293945,52.968753814697266
1770950131149473300,4.572473388671875,8.11875057220459,36.993751525878906,53.13750076293945
1770950131159473200,4.58247314453125,8.02500057220459,37.03125,53.10000228881836
1770950131169473300,4.592473388671875,8.362500190734863,36.84375,53.306251525878906
1770950131179473200,4.60247314453125,8.418750762939453,36.48750305175781,53.00625228881836
1770950131189473300,4.612473388671875,8.58750057220459,36.28125,53.23125076293945
1770950131199473200,4.62247314453125,8.418750762939453,36.45000076293945,53.587501525878906
1770950131209473300,4.632473388671875,8.8125,36.618751525878906,53.343753814697266
1770950131219473200,4.64247314453125,9.05625057220459,36.63750076293945,53.531253814697266
1770950131229473300,4.652473388671875,8.77500057220459,36.82500076293945,53.718753814697266
1770950131239473200,4.66247314453125,8.737500190734863,36.91875076293945,53.66250228881836
1770950131249473300,4.672473388671875,8.456250190734863,37.03125,53.587501525878906
1770950131259473200,4.68247314453125,8.49375057220459,37.181251525878906,53.60625076293945
1770950131269473300,4.692473388671875,8.137500762939453,37.23750305175781,53.47500228881836
1770950131279473200,4.70247314453125,8.456250190734863,37.06875228881836,53.36250305175781
1770950131289473300,4.712473388671875,8.25,37.06875228881836,53.51250076293945
1770950131299473200,4.72247314453125,8.0625,37.181251525878906,53.212501525878906
1770950131309473300,4.732473388671875,7.950000286102295,37.10625076293945,52.81875228881836
1770950131319473200,4.74247314453125,8.02500057220459,36.88125228881836,52.48125076293945
1770950131329473300,4.752473388671875,8.006250381469727,36.67500305175781,52.38750076293945
1770950131339473200,4.76247314453125,8.0625,36.65625,52.53750228881836
1770950131349473300,4.772473388671875,8.21250057220459,36.75,52.63125228881836
1770950131359473200,4.78247314453125,7.931250095367432,36.76875305175781,52.63125228881836
1770950131369473300,4.792473388671875,7.837500095367432,36.76875305175781,52.72500228881836
1770950131379473200,4.80247314453125,7.950000286102295,36.73125076293945,52.837501525878906
1770950131389473300,4.812473388671875,8.325000762939453,36.84375,53.10000228881836
1770950131399473200,4.82247314453125,8.381250381469727,36.78750228881836,53.718753814697266
1770950131409473300,4.832473388671875,8.475000381469727,36.9375,53.70000076293945
1770950131419473200,4.84247314453125,8.68125057220459,36.993751525878906,53.94375228881836
1770950131429473300,4.852473388671875,8.831250190734863,37.05000305175781,54.01875305175781
1770950131439473200,4.86247314453125,8.86875057220459,37.16250228881836,54.39375305175781
1770950131449473300,4.872473388671875,8.756250381469727,37.06875228881836,54.281253814697266
1770950131459473200,4.88247314453125,8.550000190734863,36.97500228881836,54.63750076293945
1770950131469473300,4.892473388671875,8.625,36.86250305175781,54.30000305175781
1770950131479473200,4.90247314453125,8.34375,37.06875228881836,53.812503814697266
1770950131489473300,4.912473388671875,8.325000762939453,37.275001525878906,53.56875228881836
1770950131499473200,4.92247314453125,7.968750476837158,37.63125228881836,53.343753814697266
1770950131509473300,4.932473388671875,7.818750381469727,37.743751525878906,53.26875305175781
1770950131519473200,4.94247314453125,7.800000190734863,37.931251525878906,53.062503814697266
1770950131529473300,4.952473388671875,7.481250286102295,38.26875305175781,53.45625305175781
1770950131539473200,4.96247314453125,7.218750476837158,38.775001525878906,53.38125228881836
1770950131549473300,4.972473388671875,6.656250476837158,39.09375,53.66250228881836
1770950131559473200,4.98247314453125,6.618750095367432,39.618751525878906,54.26250076293945
1770950131569473300,4.992473388671875,6.393750190734863,39.69375228881836,54.843753814697266
1770950131579473200,5.00247314453125,6.037500381469727,39.76875305175781,54.97500228881836
1770950131589473300,5.012473388671875,6.112500190734863,40.087501525878906,54.993751525878906
1770950131599473200,5.02247314453125,5.925000190734863,40.368751525878906,55.10625076293945
1770950131609473300,5.032473388671875,5.850000381469727,40.35000228881836,54.91875076293945
1770950131619473200,5.04247314453125,5.756250381469727,40.275001525878906,54.843753814697266
1770950131629473300,5.052473388671875,6,40.42500305175781,54.843753814697266
1770950131639473200,5.06247314453125,6.018750190734863,40.40625,54.76875305175781
1770950131649473300,5.072473388671875,6.018750190734863,40.42500305175781,54.41250228881836
1770950131659473200,5.08247314453125,6.562500476837158,40.21875,54.26250076293945
1770950131669473300,5.092473388671875,6.618750095367432,39.97500228881836,54.093753814697266
1770950131679473200,5.10247314453125,6.656250476837158,39.78750228881836,53.962501525878906
1770950131689473300,5.112473388671875,7.162500381469727,39.63750076293945,53.85000228881836
1770950131699473200,5.12247314453125,7.350000381469727,39.63750076293945,53.906253814697266
1770950131709473300,5.132473388671875,7.237500190734863,39.39375305175781,53.75625228881836
1770950131719473200,5.14247314453125,7.387500286102295,39.03750228881836,53.51250076293945
1770950131729473300,5.152473388671875,7.312500476837158,38.85000228881836,53.625003814697266
1770950131739473200,5.16247314453125,7.312500476837158,38.88750076293945,53.66250228881836
1770950131749473300,5.172473388671875,7.106250286102295,39,54.20625305175781
1770950131759473200,5.18247314453125,7.068750381469727,38.83125305175781,54.45000076293945
1770950131769473300,5.192473388671875,6.787500381469727,38.90625,54.69375228881836
1770950131779473200,5.20247314453125,6.881250381469727,38.868751525878906,54.806251525878906
1770950131789473300,5.212473388671875,6.975000381469727,39,55.181251525878906
1770950131799473200,5.22247314453125,7.087500095367432,39.28125,55.25625228881836
1770950131809473300,5.232473388671875,7.237500190734863,39.65625,55.33125305175781
1770950131819473200,5.24247314453125,7.181250095367432,39.86250305175781,55.51875305175781
1770950131829473300,5.252473388671875,7.293750286102295,39.69375228881836,55.05000305175781
1770950131839473200,5.26247314453125,7.181250095367432,40.087501525878906,54.937503814697266
1770950131849473300,5.272473388671875,7.293750286102295,40.29375076293945,54.82500076293945
1770950131859473200,5.28247314453125,6.918750286102295,40.42500305175781,54.91875076293945
1770950131869473300,5.292473388671875,6.825000286102295,40.63125228881836,54.54375076293945
1770950131879473200,5.30247314453125,6.318750381469727,40.70625305175781,54.806251525878906
1770950131889473300,5.312473388671875,6.150000095367432,40.96875,55.01250076293945
1770950131899473200,5.32247314453125,5.662500381469727,41.23125076293945,55.087501525878906
1770950131909473300,5.332473388671875,5.643750190734863,41.92500305175781,55.181251525878906
1770950131919473200,5.34247314453125,5.868750095367432,42.09375,54.712501525878906
1770950131929473300,5.352473388671875,5.625,42.13125228881836,54.243751525878906
1770950131939473200,5.36247314453125,5.850000381469727,42.26250076293945,53.98125076293945
1770950131949473300,5.372473388671875,5.681250095367432,42.48750305175781,54.03750228881836
1770950131959473200,5.38247314453125,5.737500190734863,42.75,53.73750305175781
1770950131969473300,5.392473388671875,5.568750381469727,42.82500076293945,53.73750305175781
1770950131979473200,5.40247314453125,5.456250190734863,42.84375,53.493751525878906
1770950131989473300,5.412473388671875,5.381250381469727,42.75,53.493751525878906
1770950131999473200,5.42247314453125,5.212500095367432,42.9375,53.92500305175781
1770950132009473300,5.432473388671875,5.0625,43.35000228881836,54.281253814697266
1770950132019473200,5.44247314453125,5.118750095367432,43.5,53.962501525878906
1770950132039473200,5.46247314453125,4.931250095367432,43.931251525878906,53.23125076293945
1770950132049473300,5.472473388671875,4.800000190734863,44.19375228881836,52.837501525878906
1770950132059473200,5.48247314453125,4.743750095367432,44.56875228881836,53.04375076293945
1770950132069473300,5.492473388671875,4.443750381469727,44.85000228881836,52.85625076293945
1770950132079473200,5.50247314453125,4.237500190734863,45.1875,52.72500228881836
1770950132089473300,5.512473388671875,4.368750095367432,45.48750305175781,52.931251525878906
1770950132099473200,5.52247314453125,3.9562501907348633,45.84375,53.38125228881836
1770950132109473300,5.532473388671875,3.3937501907348633,46.20000076293945,54.187503814697266
1770950132119473200,5.54247314453125,3.3375000953674316,46.6875,54.91875076293945
1770950132129473300,5.552473388671875,3.1500000953674316,46.85625076293945,55.312503814697266
1770950132139473200,5.56247314453125,3.0562500953674316,47.08125305175781,55.44375228881836
1770950132149473300,5.572473388671875,2.8687500953674316,47.36250305175781,55.76250076293945
1770950132159473200,5.58247314453125,2.8312501907348633,47.64375305175781,55.89375305175781
1770950132169473300,5.592473388671875,2.4000000953674316,47.962501525878906,56.04375076293945
1770950132179473200,5.60247314453125,2.512500047683716,48.431251525878906,55.743751525878906
1770950132189473300,5.612473388671875,2.4375,48.31875228881836,54.97500228881836
1770950132199473200,5.62247314453125,2.4375,48.41250228881836,54.656253814697266
1770950132209473300,5.632473388671875,2.7375001907348633,48.50625228881836,54.337501525878906
1770950132219473200,5.64247314453125,2.793750047683716,48.712501525878906,54.03750228881836
1770950132229473300,5.652473388671875,2.887500047683716,48.76875305175781,53.45625305175781
1770950132239473200,5.66247314453125,2.8312501907348633,48.468753814697266,52.95000076293945
1770950132249473300,5.672473388671875,3.1312501430511475,48.31875228881836,51.843753814697266
1770950132259473200,5.68247314453125,3.2062501907348633,48.31875228881836,51.000003814697266
1770950132269473300,5.692473388671875,3.8812501430511475,48.22500228881836,50.343753814697266
1770950132279473200,5.70247314453125,4.537500381469727,48.07500076293945,48.95625305175781
1770950132289473300,5.712473388671875,5.043750286102295,47.98125076293945,47.36250305175781
1770950132299473200,5.72247314453125,5.4375,47.47500228881836,45.95625305175781
1770950132309473300,5.732473388671875,6.131250381469727,47.23125076293945,44.70000076293945
1770950132319473200,5.74247314453125,6.750000476837158,47.38125228881836,43.44375228881836
1770950132329473300,5.752473388671875,7.106250286102295,47.41875076293945,42.806251525878906
1770950132339473200,5.76247314453125,7.200000286102295,47.25,42.46875
1770950132349473300,5.772473388671875,7.256250381469727,47.34375,42.09375
1770950132359473200,5.78247314453125,7.068750381469727,47.28750228881836,41.98125076293945
1770950132369473300,5.792473388671875,7.406250476837158,47.26875305175781,42.11250305175781
1770950132379473200,5.80247314453125,7.612500190734863,47.625,42.22500228881836
1770950132389473300,5.812473388671875,7.312500476837158,47.70000076293945,42.618751525878906
1770950132399473200,5.82247314453125,6.993750095367432,47.625,43.42500305175781
1770950132409473300,5.832473388671875,6.750000476837158,47.70000076293945,43.85625076293945
1770950132419473200,5.84247314453125,6.881250381469727,47.66250228881836,44.0625
1770950132429473300,5.852473388671875,6.787500381469727,47.681251525878906,44.212501525878906
1770950132439473200,5.86247314453125,6.712500095367432,47.493751525878906,45.243751525878906
1770950132449473300,5.872473388671875,5.756250381469727,47.681251525878906,46.743751525878906
1770950132459473200,5.88247314453125,5.193750381469727,47.681251525878906,48.13125228881836
1770950132469473300,5.892473388671875,4.912500381469727,47.8125,49.38750076293945
1770950132479473200,5.90247314453125,4.78125,47.98125076293945,50.32500076293945
1770950132489473300,5.912473388671875,4.856250286102295,47.85000228881836,51.01875305175781
1770950132499473200,5.92247314453125,4.78125,47.88750076293945,51.712501525878906
1770950132509473300,5.932473388671875,4.59375,47.587501525878906,52.81875228881836
1770950132519473200,5.94247314453125,4.612500190734863,47.962501525878906,53.04375076293945
1770950132529473300,5.952473388671875,5.006250381469727,47.75625228881836,52.743751525878906
1770950132539473200,5.96247314453125,5.381250381469727,47.45625305175781,52.275001525878906
1770950132549473300,5.972473388671875,5.550000190734863,47.34375,51.97500228881836
1770950132559473200,5.98247314453125,5.850000381469727,46.875,51.48750305175781
1770950132569473300,5.992473388671875,5.943750381469727,46.76250076293945,51.69375228881836
1770950132579473200,6.00247314453125,6.168750286102295,46.53750228881836,51.468753814697266
1770950132589473300,6.012473388671875,6.243750095367432,46.5,51.13125228881836
1770950132599473200,6.02247314453125,6.206250190734863,46.42500305175781,51.187503814697266
1770950132609473300,6.032473388671875,6.093750476837158,46.3125,51.093753814697266
1770950132619473200,6.04247314453125,6.093750476837158,46.3125,51.093753814697266
1770950132629473300,6.052473388671875,6.093750476837158,46.181251525878906,51.07500076293945
1770950132639473200,6.06247314453125,5.962500095367432,46.16250228881836,51.39375305175781
1770950132649473300,6.072473388671875,5.793750286102295,45.993751525878906,51.375003814697266
1770950132659473200,6.08247314453125,5.362500190734863,45.88125228881836,51.91875076293945
1770950132669473300,6.092473388671875,5.100000381469727,45.91875076293945,52.29375076293945
1770950132679473200,6.10247314453125,5.137500286102295,45.375,52.218753814697266
1770950132689473300,6.112473388671875,5.100000381469727,45.20625305175781,52.462501525878906
1770950132699473200,6.12247314453125,5.137500286102295,44.962501525878906,52.44375228881836
1770950132709473300,6.132473388671875,4.96875,44.71875,52.743751525878906
1770950132719473200,6.14247314453125,4.950000286102295,44.60625076293945,52.781253814697266
1770950132729473300,6.152473388671875,5.0625,44.4375,52.57500076293945
1770950132739473200,6.16247314453125,5.587500095367432,44.32500076293945,52.275001525878906
1770950132749473300,6.172473388671875,6,44.025001525878906,52.01250076293945
1770950132759473200,6.18247314453125,5.962500095367432,43.875,51.91875076293945
1770950132769473300,6.192473388671875,5.90625,43.89375305175781,51.97500228881836
1770950132779473200,6.20247314453125,5.850000381469727,43.837501525878906,52.14375305175781
1770950132789473300,6.212473388671875,6.075000286102295,43.59375,52.23750305175781
1770950132799473200,6.22247314453125,6.056250095367432,43.5,52.38750076293945
1770950132809473300,6.232473388671875,5.8125,43.25625228881836,52.66875076293945
1770950132819473200,6.24247314453125,5.550000190734863,43.05000305175781,52.931251525878906
1770950132829473300,6.252473388671875,5.493750095367432,42.900001525878906,52.89375305175781
1770950132839473200,6.26247314453125,5.793750286102295,42.91875076293945,53.13750076293945
1770950132849473300,6.272473388671875,5.868750095367432,42.76875305175781,53.118751525878906
1770950132859473200,6.28247314453125,6.056250095367432,42.993751525878906,52.875003814697266
1770950132869473300,6.292473388671875,6.262500286102295,43.01250076293945,52.593753814697266
1770950132879473200,6.30247314453125,6.825000286102295,42.95625305175781,52.14375305175781
1770950132889473300,6.312473388671875,7.293750286102295,43.125,52.10625076293945
1770950132899473200,6.32247314453125,7.162500381469727,43.33125305175781,52.181251525878906
1770950132909473300,6.332473388671875,7.143750190734863,43.33125305175781,52.42500305175781
1770950132919473200,6.34247314453125,6.956250190734863,43.61250305175781,52.650001525878906
1770950132929473300,6.352473388671875,6.900000095367432,43.61250305175781,52.70625305175781
1770950132939473200,6.36247314453125,6.581250190734863,43.38750076293945,53.23125076293945
1770950132949473300,6.372473388671875,6.300000190734863,43.5,53.38125228881836
1770950132959473200,6.38247314453125,5.456250190734863,43.53750228881836,53.75625228881836
1770950132969473300,6.392473388671875,5.15625,43.51875305175781,53.83125305175781
1770950132979473200,6.40247314453125,5.175000190734863,43.63125228881836,53.83125305175781
1770950132989473300,6.412473388671875,5.306250095367432,43.81875228881836,53.73750305175781
1770950132999473200,6.42247314453125,4.96875,43.81875228881836,53.531253814697266
1770950133009473300,6.432473388671875,5.025000095367432,44.08125305175781,53.775001525878906
1770950133019473200,6.44247314453125,5.418750286102295,44.28750228881836,53.75625228881836
1770950133029473300,6.452473388671875,5.456250190734863,44.55000305175781,53.51250076293945
1770950133039473200,6.46247314453125,5.625,44.493751525878906,52.875003814697266
1770950133049473300,6.472473388671875,5.71875,44.587501525878906,52.06875228881836
1770950133059473200,6.48247314453125,6,44.73750305175781,51.39375305175781
1770950133069473300,6.492473388671875,5.681250095367432,45.1875,51.375003814697266
1770950133089473300,6.512473388671875,5.53125,45.69375228881836,50.98125076293945
1770950133099473200,6.52247314453125,5.15625,45.9375,50.94375228881836
1770950133109473300,6.532473388671875,4.875,46.20000076293945,51.525001525878906
1770950133119473200,6.54247314453125,4.893750190734863,46.78125,52.25625228881836
1770950133129473300,6.552473388671875,4.650000095367432,47.17500305175781,53.41875076293945
1770950133139473200,6.56247314453125,4.068750381469727,47.26875305175781,54.468753814697266
1770950133149473300,6.572473388671875,3.7125000953674316,47.0625,54.69375228881836
1770950133159473200,6.58247314453125,3.6000001430511475,47.28750228881836,55.29375076293945
1770950133169473300,6.592473388671875,3.5062501430511475,47.10000228881836,55.72500228881836
1770950133179473200,6.60247314453125,3.3187501430511475,47.08125305175781,56.156253814697266
1770950133189473300,6.612473388671875,3.3937501907348633,46.98750305175781,56.118751525878906
1770950133199473200,6.62247314453125,2.9625000953674316,46.85625076293945,56.531253814697266
1770950133209473300,6.632473388671875,2.7562501430511475,46.81875228881836,56.56875228881836
1770950133219473200,6.64247314453125,2.793750047683716,46.78125,56.47500228881836
1770950133229473300,6.652473388671875,3.0187501907348633,46.81875228881836,56.85000228881836
1770950133239473200,6.66247314453125,3.093750238418579,46.61250305175781,56.962501525878906
1770950133249473300,6.672473388671875,3.2250001430511475,46.59375,57.30000305175781
1770950133259473200,6.68247314453125,2.981250047683716,46.61250305175781,57.20625305175781
1770950133269473300,6.692473388671875,3,46.42500305175781,57.26250076293945
1770950133279473200,6.70247314453125,3.3375000953674316,46.3125,56.85000228881836
1770950133289473300,6.712473388671875,3.4125001430511475,45.82500076293945,56.66250228881836
1770950133299473200,6.72247314453125,3.637500047683716,45.82500076293945,56.79375076293945
1770950133309473300,6.732473388671875,3.6750001907348633,45.712501525878906,56.64375305175781
1770950133319473200,6.74247314453125,3.637500047683716,45.48750305175781,56.306251525878906
1770950133329473300,6.752473388671875,3.843750238418579,45.45000076293945,55.66875076293945
1770950133339473200,6.76247314453125,4.556250095367432,45.03750228881836,54.95625305175781
1770950133349473300,6.772473388671875,4.743750095367432,44.66250228881836,54.26250076293945
1770950133359473200,6.78247314453125,5.118750095367432,44.625,53.343753814697266
1770950133369473300,6.792473388671875,5.831250190734863,44.775001525878906,52.80000305175781
1770950133379473200,6.80247314453125,5.943750381469727,44.587501525878906,52.25625228881836
1770950133389473300,6.812473388671875,6.037500381469727,44.64375305175781,52.25625228881836
1770950133399473200,6.82247314453125,6.206250190734863,44.85000228881836,52.16250228881836
1770950133409473300,6.832473388671875,5.962500095367432,44.98125076293945,52.500003814697266
1770950133419473200,6.84247314453125,5.681250095367432,45.243751525878906,52.91250228881836
1770950133429473300,6.852473388671875,5.662500381469727,45.806251525878906,53.55000305175781
1770950133439473200,6.86247314453125,5.418750286102295,45.900001525878906,54.63750076293945
1770950133449473300,6.872473388671875,4.837500095367432,46.44375228881836,55.44375228881836
1770950133459473200,6.88247314453125,4.350000381469727,46.81875228881836,55.98750305175781
1770950133469473300,6.892473388671875,4.106250286102295,47.118751525878906,56.13750076293945
1770950133479473200,6.90247314453125,3.8062500953674316,47.28750228881836,56.587501525878906
1770950133489473300,6.912473388671875,3.7125000953674316,47.53125,56.812503814697266
1770950133499473200,6.92247314453125,3.2062501907348633,47.75625228881836,57.093753814697266
1770950133509473300,6.932473388671875,3.0375001430511475,47.962501525878906,57.056251525878906
1770950133519473200,6.94247314453125,2.7750000953674316,48.39375305175781,57.07500076293945
1770950133529473300,6.952473388671875,2.5687501430511475,48.48750305175781,56.962501525878906
1770950133539473200,6.96247314453125,2.5500001907348633,48.78750228881836,57.03750228881836
1770950133549473300,6.972473388671875,2.5500001907348633,48.91875076293945,56.88750076293945
1770950133559473200,6.98247314453125,2.7562501430511475,49.10625076293945,56.962501525878906
1770950133569473300,6.992473388671875,2.6625001430511475,49.218753814697266,56.962501525878906
1770950133579473200,7.00247314453125,2.71875,49.35000228881836,57.093753814697266
1770950133589473300,7.012473388671875,2.5500001907348633,49.500003814697266,57.243751525878906
1770950133599473200,7.02247314453125,2.2687501907348633,49.51875305175781,57.50625228881836
1770950133609473300,7.032473388671875,2.3062500953674316,49.57500076293945,57.656253814697266
1770950133619473200,7.04247314453125,2.4562501907348633,49.181251525878906,57.468753814697266
1770950133629473300,7.052473388671875,2.6437501907348633,49.20000076293945,57.562503814697266
1770950133639473200,7.06247314453125,2.53125,48.97500228881836,56.83125305175781
1770950133649473300,7.072473388671875,2.5687501430511475,48.63750076293945,56.250003814697266
1770950133659473200,7.08247314453125,2.8312501907348633,48.281253814697266,55.80000305175781
1770950133669473300,7.092473388671875,3.281250238418579,47.85000228881836,55.406253814697266
1770950133679473200,7.10247314453125,3.6000001430511475,47.4375,54.993751525878906
1770950133689473300,7.112473388671875,3.8812501430511475,46.89375305175781,54.656253814697266
1770950133699473200,7.12247314453125,3.9750001430511475,46.89375305175781,54.82500076293945
1770950133709473300,7.132473388671875,4.293750286102295,46.25625228881836,54.82500076293945
1770950133719473200,7.14247314453125,4.462500095367432,46.05000305175781,55.312503814697266
1770950133729473300,7.152473388671875,5.081250190734863,45.78750228881836,55.500003814697266
1770950133739473200,7.16247314453125,5.25,45.78750228881836,55.650001525878906
1770950133749473300,7.172473388671875,5.118750095367432,45.60000228881836,55.875003814697266
1770950133759473200,7.18247314453125,5.400000095367432,45.26250076293945,55.70625305175781
1770950133769473300,7.192473388671875,5.381250381469727,45.13125228881836,55.76250076293945
1770950133779473200,7.20247314453125,5.53125,44.775001525878906,55.35000228881836
1770950133789473300,7.212473388671875,5.456250190734863,44.79375076293945,55.20000076293945
1770950133799473200,7.22247314453125,5.71875,44.64375305175781,55.20000076293945
1770950133809473300,7.232473388671875,5.34375,44.53125,55.38750076293945
1770950133819473200,7.24247314453125,5.081250190734863,44.32500076293945,55.57500076293945
1770950133829473300,7.252473388671875,4.800000190734863,44.212501525878906,55.89375305175781
1770950133839473200,7.26247314453125,4.650000095367432,44.23125076293945,56.04375076293945
1770950133849473300,7.272473388671875,4.743750095367432,43.91250228881836,55.98750305175781
1770950133859473200,7.28247314453125,4.818750381469727,43.875,56.23125076293945
1770950133869473300,7.292473388671875,4.59375,43.875,56.32500076293945
1770950133879473200,7.30247314453125,4.368750095367432,44.0625,56.51250076293945
1770950133889473300,7.312473388671875,4.350000381469727,44.19375228881836,56.60625076293945
1770950133899473200,7.32247314453125,4.668750286102295,44.25,56.681251525878906
1770950133909473300,7.332473388671875,5.118750095367432,44.4375,56.38125228881836
1770950133919473200,7.34247314453125,5.212500095367432,44.64375305175781,56.681251525878906
1770950133929473300,7.352473388671875,5.137500286102295,45.1875,57.056251525878906
1770950133939473200,7.36247314453125,5.0625,45.337501525878906,57.11250305175781
1770950133949473300,7.372473388671875,5.193750381469727,45.243751525878906,57.30000305175781
1770950133959473200,7.38247314453125,5.081250190734863,44.92500305175781,57.093753814697266
1770950133969473300,7.392473388671875,5.362500190734863,44.60625076293945,56.775001525878906
1770950133979473200,7.40247314453125,5.325000286102295,44.587501525878906,56.681251525878906
1770950133989473300,7.412473388671875,5.175000190734863,44.25,56.681251525878906
1770950133999473200,7.42247314453125,5.231250286102295,44.15625,56.306251525878906
1770950134009473300,7.432473388671875,5.362500190734863,43.80000305175781,55.70625305175781
1770950134019473200,7.44247314453125,5.662500381469727,43.6875,55.05000305175781
1770950134029473300,7.452473388671875,5.943750381469727,43.61250305175781,54.22500228881836
1770950134039473200,7.46247314453125,6.412500381469727,43.72500228881836,53.75625228881836
1770950134049473300,7.472473388671875,6.843750476837158,43.95000076293945,53.118751525878906
1770950134059473200,7.48247314453125,6.806250095367432,43.875,52.368751525878906
1770950134069473300,7.492473388671875,6.881250381469727,44.19375228881836,51.900001525878906
1770950134079473200,7.50247314453125,6.900000095367432,44.13750076293945,51.73125076293945
1770950134089473300,7.512473388671875,7.106250286102295,44.13750076293945,51.618751525878906
1770950134099473200,7.52247314453125,7.031250476837158,44.15625,51.88125228881836
1770950134109473300,7.532473388671875,6.975000381469727,44.28750228881836,52.16250228881836
1770950134119473200,7.54247314453125,6.806250095367432,44.212501525878906,52.20000076293945
1770950134129473300,7.552473388671875,6.618750095367432,44.17500305175781,52.70625305175781
1770950134139473200,7.56247314453125,6.918750286102295,44.19375228881836,53.250003814697266
1770950134149473300,7.572473388671875,7.031250476837158,44.19375228881836,53.400001525878906
1770950134159473200,7.58247314453125,7.331250190734863,43.98750305175781,53.156253814697266
1770950134169473300,7.592473388671875,7.368750095367432,44.23125076293945,53.13750076293945
1770950134179473200,7.60247314453125,7.500000476837158,44.23125076293945,52.968753814697266
1770950134189473300,7.612473388671875,7.575000286102295,44.41875076293945,52.968753814697266
1770950134199473200,7.62247314453125,7.781250476837158,44.64375305175781,53.062503814697266
1770950134209473300,7.632473388671875,7.612500190734863,45.03750228881836,52.875003814697266
1770950134219473200,7.64247314453125,7.631250381469727,45.39375305175781,52.593753814697266
1770950134229473300,7.652473388671875,7.650000095367432,45.75,52.42500305175781
1770950134239473200,7.66247314453125,7.612500190734863,46.23750305175781,52.51875305175781
1770950134249473300,7.672473388671875,7.650000095367432,46.59375,52.556251525878906
1770950134259473200,7.68247314453125,7.331250190734863,47.118751525878906,52.53750228881836
1770950134269473300,7.692473388671875,7.200000286102295,47.51250076293945,52.556251525878906
1770950134279473200,7.70247314453125,6.956250190734863,48.03750228881836,52.57500076293945
1770950134289473300,7.712473388671875,6.900000095367432,48.243751525878906,52.687503814697266
1770950134299473200,7.72247314453125,6.693750381469727,48.45000076293945,52.63125228881836
1770950134309473300,7.732473388671875,6.412500381469727,48.78750228881836,52.837501525878906
1770950134319473200,7.74247314453125,6.393750190734863,49.10625076293945,53.08125305175781
1770950134329473300,7.752473388671875,5.775000095367432,49.38750076293945,53.437503814697266
1770950134339473200,7.76247314453125,5.4375,49.650001525878906,53.64375305175781
1770950134349473300,7.772473388671875,4.950000286102295,49.98750305175781,53.906253814697266
1770950134359473200,7.78247314453125,4.631250381469727,50.41875076293945,54.30000305175781
1770950134369473300,7.792473388671875,4.256250381469727,50.83125305175781,54.67500305175781
1770950134379473200,7.80247314453125,4.012500286102295,51.16875076293945,54.843753814697266
1770950134389473300,7.812473388671875,3.750000238418579,51.63750076293945,55.031253814697266
1770950134399473200,7.82247314453125,3.375000238418579,52.368751525878906,55.48125076293945
1770950134409473300,7.832473388671875,3.4875001907348633,52.80000305175781,55.42500305175781
1770950134419473200,7.84247314453125,3.6000001430511475,53.306251525878906,55.593753814697266
1770950134429473300,7.852473388671875,3.7875001430511475,53.70000076293945,55.968753814697266
1770950134439473200,7.86247314453125,3.731250047683716,53.83125305175781,55.837501525878906
1770950134449473300,7.872473388671875,3.5062501430511475,54.07500076293945,55.837501525878906
1770950134459473200,7.88247314453125,3.075000047683716,54.525001525878906,56.36250305175781
1770950134469473300,7.892473388671875,3.168750047683716,54.712501525878906,56.60625076293945
1770950134479473200,7.90247314453125,2.71875,54.95625305175781,56.56875228881836
1770950134489473300,7.912473388671875,2.512500047683716,55.35000228881836,56.868751525878906
1770950134499473200,7.92247314453125,2.25,55.38750076293945,56.92500305175781
1770950134509473300,7.932473388671875,2.1750001907348633,55.650001525878906,56.88750076293945
1770950134519473200,7.94247314453125,2.1000001430511475,55.781253814697266,56.94375228881836
1770950134529473300,7.952473388671875,2.3062500953674316,55.80000305175781,56.92500305175781
1770950134539473200,7.96247314453125,2.6625001430511475,55.650001525878906,56.28750228881836
1770950134549473300,7.972473388671875,2.71875,55.76250076293945,56.08125305175781
1770950134559473200,7.98247314453125,2.9625000953674316,55.57500076293945,55.650001525878906
1770950134569473300,7.992473388671875,2.9250001907348633,55.23750305175781,55.087501525878906
1770950134579473200,8.00247314453125,3.0375001430511475,55.10625076293945,54.60000228881836
1770950134589473300,8.012473388671875,2.7375001907348633,54.78750228881836,54.01875305175781
1770950134599473200,8.02247314453125,2.71875,54.750003814697266,53.64375305175781
1770950134609473300,8.032473388671875,2.4937500953674316,54.712501525878906,53.343753814697266
1770950134619473200,8.04247314453125,2.606250047683716,54.656253814697266,53.400001525878906
1770950134629473300,8.052473388671874,2.6437501907348633,54.30000305175781,53.212501525878906
1770950134639473200,8.06247314453125,2.8312501907348633,54.150001525878906,53.26875305175781
1770950134649473300,8.072473388671876,2.8125,54.000003814697266,53.587501525878906
1770950134659473200,8.08247314453125,3.0187501907348633,53.64375305175781,53.73750305175781
1770950134669473300,8.092473388671875,3.2062501907348633,53.36250305175781,53.85000228881836
1770950134679473200,8.10247314453125,3.2437500953674316,53.062503814697266,53.79375076293945
1770950134689473300,8.112473388671875,3.4875001907348633,52.76250076293945,54.01875305175781
1770950134699473200,8.12247314453125,3.5250000953674316,52.51875305175781,54.26250076293945
1770950134709473300,8.132473388671874,3.3937501907348633,52.16250228881836,54.431251525878906
1770950134719473200,8.14247314453125,3.468750238418579,51.656253814697266,54.69375228881836
1770950134729473300,8.152473388671876,3.6000001430511475,51.20625305175781,54.58125305175781
1770950134739473200,8.16247314453125,3.6937501430511475,51.187503814697266,54.750003814697266
1770950134749473300,8.172473388671875,3.918750047683716,51.150001525878906,54.375003814697266
1770950134759473200,8.18247314453125,4.275000095367432,51.11250305175781,54.78750228881836
1770950134769473300,8.192473388671875,4.40625,51.30000305175781,55.031253814697266
1770950134779473200,8.20247314453125,4.481250286102295,51.26250076293945,54.95625305175781
1770950134789473300,8.212473388671874,4.743750095367432,51.35625076293945,54.95625305175781
1770950134799473200,8.22247314453125,4.78125,51.54375076293945,55.275001525878906
1770950134809473300,8.232473388671876,4.931250095367432,51.78750228881836,55.61250305175781
1770950134819473200,8.24247314453125,5.137500286102295,51.750003814697266,55.462501525878906
1770950134829473300,8.252473388671875,5.212500095367432,51.63750076293945,55.931251525878906
1770950134839473200,8.26247314453125,5.212500095367432,51.337501525878906,55.89375305175781
1770950134849473300,8.272473388671875,5.381250381469727,50.98125076293945,55.61250305175781
1770950134859473200,8.28247314453125,5.662500381469727,50.92500305175781,55.556251525878906
1770950134869473300,8.292473388671874,5.850000381469727,50.775001525878906,55.275001525878906
1770950134879473200,8.30247314453125,5.662500381469727,50.60625076293945,54.88125228881836
1770950134889473300,8.312473388671876,5.793750286102295,50.41875076293945,54.63750076293945
1770950134899473200,8.32247314453125,5.193750381469727,50.51250076293945,55.218753814697266
1770950134909473300,8.332473388671875,5.025000095367432,50.64375305175781,55.63125228881836
1770950134919473200,8.34247314453125,4.537500381469727,50.88750076293945,55.85625076293945
1770950134929473300,8.352473388671875,4.162500381469727,51.150001525878906,56.26875305175781
1770950134939473200,8.36247314453125,3.6000001430511475,51.35625076293945,56.85000228881836
1770950134949473300,8.372473388671875,3.262500047683716,51.54375076293945,57.67500305175781
1770950134959473200,8.38247314453125,3.262500047683716,51.73125076293945,57.91875076293945
1770950134969473300,8.392473388671876,3.0375001430511475,52.05000305175781,58.42500305175781
1770950134979473200,8.40247314453125,3.075000047683716,51.900001525878906,58.35000228881836
1770950134989473300,8.412473388671875,3.262500047683716,51.900001525878906,58.33125305175781
1770950134999473200,8.42247314453125,3.2062501907348633,51.712501525878906,58.61250305175781
1770950135009473300,8.432473388671875,3.093750238418579,51.60000228881836,58.72500228881836
1770950135019473200,8.44247314453125,3.075000047683716,51.20625305175781,58.275001525878906
1770950135029473300,8.452473388671875,3.4312500953674316,51.000003814697266,57.60000228881836
1770950135039473200,8.46247314453125,3.6187500953674316,50.66250228881836,57.16875076293945
1770950135049473300,8.472473388671874,3.731250047683716,50.250003814697266,56.04375076293945
1770950135059473200,8.48247314453125,3.937500238418579,50.04375076293945,55.25625228881836
1770950135069473300,8.492473388671876,4.03125,49.57500076293945,54.48750305175781
1770950135079473200,8.50247314453125,4.5,49.51875305175781,53.47500228881836
1770950135089473300,8.512473388671875,4.78125,49.06875228881836,52.95000076293945
1770950135099473200,8.52247314453125,4.893750190734863,49.10625076293945,53.08125305175781
1770950135109473300,8.532473388671875,4.556250095367432,49.01250076293945,53.45625305175781
1770950135119473200,8.54247314453125,4.556250095367432,49.16250228881836,53.64375305175781
1770950135129473300,8.552473388671874,4.706250190734863,49.25625228881836,54.13125228881836
1770950135139473200,8.56247314453125,4.78125,49.368751525878906,54.431251525878906
1770950135149473300,8.572473388671876,4.275000095367432,49.72500228881836,54.73125076293945
1770950135159473200,8.58247314453125,3.918750047683716,49.91250228881836,55.33125305175781
1770950135169473300,8.592473388671875,3.843750238418579,50.437503814697266,55.650001525878906
1770950135179473200,8.60247314453125,3.918750047683716,50.66250228881836,55.72500228881836
1770950135189473300,8.612473388671875,3.7875001430511475,50.85000228881836,55.57500076293945
1770950135199473200,8.62247314453125,3.543750047683716,51.03750228881836,55.66875076293945
1770950135209473300,8.632473388671874,3.262500047683716,51.35625076293945,55.931251525878906
1770950135219473200,8.64247314453125,3.1125001907348633,51.243751525878906,56.28750228881836
1770950135229473300,8.652473388671876,3.5250000953674316,51.150001525878906,56.23125076293945
1770950135239473200,8.66247314453125,3.4125001430511475,50.98125076293945,56.118751525878906
1770950135249473300,8.672473388671875,3.5062501430511475,50.681251525878906,55.51875305175781
1770950135259473200,8.68247314453125,3.3187501430511475,50.47500228881836,55.16250228881836
1770950135269473300,8.692473388671875,3.5250000953674316,50.36250305175781,55.031253814697266
1770950135279473200,8.70247314453125,3.6187500953674316,50.212501525878906,54.78750228881836
1770950135289473300,8.712473388671874,3.637500047683716,50.025001525878906,54.26250076293945
1770950135299473200,8.72247314453125,3.5812501907348633,50.13750076293945,53.94375228881836
1770950135309473300,8.732473388671876,3.7875001430511475,49.95000076293945,53.79375076293945
1770950135319473200,8.74247314453125,4.368750095367432,49.875003814697266,53.55000305175781
1770950135329473300,8.752473388671875,4.631250381469727,49.72500228881836,53.437503814697266
1770950135339473200,8.76247314453125,5.193750381469727,49.781253814697266,53.08125305175781
1770950135349473300,8.772473388671875,5.381250381469727,49.51875305175781,52.72500228881836
1770950135359473200,8.78247314453125,5.71875,49.16250228881836,52.72500228881836
1770950135369473300,8.792473388671874,5.850000381469727,48.91875076293945,52.57500076293945
1770950135379473200,8.80247314453125,6.187500476837158,48.58125305175781,52.406253814697266
1770950135389473300,8.812473388671876,6.075000286102295,48.60000228881836,52.16250228881836
1770950135399473200,8.82247314453125,6.225000381469727,48.337501525878906,51.750003814697266
1770950135409473300,8.832473388671875,6.075000286102295,48.22500228881836,51.712501525878906
1770950135419473200,8.84247314453125,6.187500476837158,47.94375228881836,51.88125228881836
1770950135429473300,8.852473388671875,6.075000286102295,47.71875,51.900001525878906
1770950135439473200,8.86247314453125,6.037500381469727,47.587501525878906,51.63750076293945
1770950135449473300,8.872473388671875,6.281250476837158,47.55000305175781,51.618751525878906
1770950135459473200,8.88247314453125,6.375000476837158,47.60625076293945,51.281253814697266
1770950135469473300,8.892473388671876,6.693750381469727,47.400001525878906,50.681251525878906
1770950135479473200,8.90247314453125,6.506250381469727,47.306251525878906,50.681251525878906
1770950135489473300,8.912473388671875,6.806250095367432,47.36250305175781,50.45625305175781
1770950135499473200,8.92247314453125,6.375000476837158,47.26875305175781,50.36250305175781
1770950135509473300,8.932473388671875,6.281250476837158,47.53125,50.718753814697266
1770950135519473200,8.94247314453125,6.037500381469727,47.8125,50.962501525878906
1770950135529473300,8.952473388671875,5.775000095367432,47.75625228881836,51.562503814697266
1770950135539473200,8.96247314453125,5.231250286102295,47.775001525878906,52.20000076293945
1770950135549473300,8.972473388671874,4.743750095367432,47.94375228881836,53.36250305175781
1770950135559473200,8.98247314453125,4.631250381469727,48.056251525878906,54.01875305175781
1770950135569473300,8.992473388671876,4.21875,48.056251525878906,54.86250305175781
1770950135579473200,9.00247314453125,4.050000190734863,48.22500228881836,55.275001525878906
1770950135589473300,9.012473388671875,4.03125,47.94375228881836,55.05000305175781
1770950135599473200,9.02247314453125,3.8812501430511475,47.70000076293945,55.368751525878906
1770950135609473300,9.032473388671875,4.012500286102295,47.71875,55.125003814697266
1770950135619473200,9.04247314453125,4.537500381469727,47.4375,54.843753814697266
1770950135629473300,9.052473388671874,4.668750286102295,47.19375228881836,54.48750305175781
1770950135639473200,9.06247314453125,5.081250190734863,46.837501525878906,53.98125076293945
1770950135649473300,9.072473388671876,5.175000190734863,46.76250076293945,53.906253814697266
1770950135659473200,9.08247314453125,5.550000190734863,46.38750076293945,53.73750305175781
1770950135669473300,9.092473388671875,5.775000095367432,46.23750305175781,54.20625305175781
1770950135679473200,9.10247314453125,5.981250286102295,46.125,54.07500076293945
1770950135689473300,9.112473388671875,6.018750190734863,45.91875076293945,54.243751525878906
1770950135699473200,9.12247314453125,5.831250190734863,45.9375,54.48750305175781
1770950135709473300,9.132473388671874,5.925000190734863,45.806251525878906,54.69375228881836
1770950135719473200,9.14247314453125,5.53125,45.84375,55.06875228881836
1770950135729473300,9.152473388671876,5.268750190734863,45.82500076293945,55.125003814697266
1770950135739473200,9.16247314453125,5.400000095367432,45.60000228881836,55.218753814697266
1770950135749473300,9.172473388671875,5.287500381469727,45.46875,54.97500228881836
1770950135759473200,9.18247314453125,5.325000286102295,45.09375,54.843753814697266
1770950135769473300,9.192473388671875,5.231250286102295,44.88750076293945,54.73125076293945
1770950135779473200,9.20247314453125,5.418750286102295,44.64375305175781,54.88125228881836
1770950135789473300,9.212473388671874,5.512500286102295,44.400001525878906,55.312503814697266
1770950135799473200,9.22247314453125,5.493750095367432,44.51250076293945,55.66875076293945
1770950135809473300,9.232473388671876,5.962500095367432,44.00625228881836,55.837501525878906
1770950135819473200,9.24247314453125,5.8125,43.837501525878906,56.04375076293945
1770950135829473300,9.252473388671875,5.775000095367432,43.51875305175781,56.23125076293945
1770950135839473200,9.26247314453125,5.90625,43.20000076293945,56.493751525878906
1770950135849473300,9.272473388671875,6.037500381469727,42.900001525878906,56.868751525878906
1770950135859473200,9.28247314453125,5.831250190734863,42.60000228881836,56.98125076293945
1770950135869473300,9.292473388671874,5.90625,42.50625228881836,57.11250305175781
1770950135879473200,9.30247314453125,6.187500476837158,41.94375228881836,56.98125076293945
1770950135889473300,9.312473388671876,6.243750095367432,41.73750305175781,56.587501525878906
1770950135899473200,9.32247314453125,6.300000190734863,41.4375,56.437503814697266
1770950135909473300,9.332473388671875,6.637500286102295,41.55000305175781,56.08125305175781
1770950135919473200,9.34247314453125,6.918750286102295,41.8125,56.10000228881836
1770950135929473300,9.352473388671875,7.143750190734863,41.75625228881836,55.81875228881836
1770950135939473200,9.36247314453125,7.556250095367432,41.98125076293945,55.687503814697266
1770950135949473300,9.372473388671875,7.443750381469727,41.90625,55.35000228881836
1770950135959473200,9.38247314453125,7.218750476837158,41.8125,55.51875305175781
1770950135969473300,9.392473388671876,6.900000095367432,42.07500076293945,56.118751525878906
1770950135979473200,9.40247314453125,6.993750095367432,42.1875,56.343753814697266
1770950135989473300,9.412473388671875,6.768750190734863,42.26250076293945,57.000003814697266
1770950135999473200,9.42247314453125,6.187500476837158,42.22500228881836,57.281253814697266
1770950136009473300,9.432473388671875,5.700000286102295,42.46875,57.73125076293945
1770950136019473200,9.44247314453125,5.34375,42.22500228881836,57.750003814697266
1770950136029473300,9.452473388671875,5.4375,42.22500228881836,57.656253814697266
1770950136039473200,9.46247314453125,5.756250381469727,42.39375305175781,57.07500076293945
1770950136049473300,9.472473388671874,6.056250095367432,42.056251525878906,55.931251525878906
1770950136059473200,9.48247314453125,5.925000190734863,42.41250228881836,55.80000305175781
1770950136069473300,9.492473388671876,6.112500190734863,42.54375076293945,55.25625228881836
1770950136079473200,9.50247314453125,6.243750095367432,42.73125076293945,54.50625228881836
1770950136089473300,9.512473388671875,6.637500286102295,42.73125076293945,54.187503814697266
1770950136099473200,9.52247314453125,6.450000286102295,42.88125228881836,54.22500228881836
1770950136109473300,9.532473388671875,6.243750095367432,43.275001525878906,54.431251525878906
1770950136119473200,9.54247314453125,6.018750190734863,43.40625,54.618751525878906
1770950136129473300,9.552473388671874,5.8125,43.91250228881836,55.462501525878906
1770950136139473200,9.56247314453125,5.71875,44.00625228881836,55.53750228881836
1770950136149473300,9.572473388671876,5.212500095367432,44.400001525878906,55.875003814697266
1770950136159473200,9.58247314453125,5.100000381469727,44.493751525878906,56.45625305175781
1770950136169473300,9.592473388671875,4.837500095367432,44.66250228881836,56.681251525878906
1770950136179473200,9.60247314453125,5.0625,45.01875305175781,56.587501525878906
1770950136189473300,9.612473388671875,5.212500095367432,45.056251525878906,56.306251525878906
1770950136199473200,9.62247314453125,4.931250095367432,45.1875,56.38125228881836
1770950136209473300,9.632473388671874,4.96875,45.243751525878906,55.91250228881836
1770950136219473200,9.64247314453125,4.875,45.30000305175781,55.406253814697266
1770950136229473300,9.652473388671876,5.043750286102295,45.26250076293945,54.91875076293945
1770950136239473200,9.66247314453125,5.193750381469727,45.30000305175781,54.58125305175781
1770950136249473300,9.672473388671875,5.193750381469727,45.39375305175781,54.03750228881836
1770950136259473200,9.68247314453125,5.118750095367432,45.41250228881836,53.85000228881836
1770950136269473300,9.692473388671875,4.78125,45.54375076293945,53.98125076293945
1770950136279473200,9.70247314453125,4.818750381469727,46.181251525878906,53.92500305175781
1770950136289473300,9.712473388671874,4.59375,46.5,54.01875305175781
1770950136299473200,9.72247314453125,4.5,46.96875,54.50625228881836
1770950136309473300,9.732473388671876,4.631250381469727,47.025001525878906,54.58125305175781
1770950136319473200,9.74247314453125,4.631250381469727,47.493751525878906,54.48750305175781
1770950136329473300,9.752473388671875,4.556250095367432,47.88750076293945,54.618751525878906
1770950136339473200,9.76247314453125,4.481250286102295,48.35625076293945,54.48750305175781
1770950136349473300,9.772473388671875,4.893750190734863,48.50625228881836,54.056251525878906
1770950136359473200,9.78247314453125,5.100000381469727,48.30000305175781,53.868751525878906
1770950136369473300,9.792473388671874,5.100000381469727,48.431251525878906,53.681251525878906
1770950136379473200,9.80247314453125,5.268750190734863,48.243751525878906,52.70625305175781
1770950136389473300,9.812473388671876,5.212500095367432,48.337501525878906,51.91875076293945
1770950136399473200,9.82247314453125,5.34375,48.20625305175781,51.16875076293945
1770950136409473300,9.832473388671875,5.475000381469727,48.20625305175781,50.56875228881836
1770950136419473200,9.84247314453125,5.512500286102295,48.093753814697266,50.212501525878906
1770950136429473300,9.852473388671875,5.15625,48.375003814697266,50.156253814697266
1770950136439473200,9.86247314453125,5.306250095367432,48.63750076293945,49.837501525878906
1770950136449473300,9.872473388671875,5.4375,48.712501525878906,49.593753814697266
1770950136459473200,9.88247314453125,5.493750095367432,48.95625305175781,49.72500228881836
1770950136469473300,9.892473388671876,5.606250286102295,49.25625228881836,50.10000228881836
1770950136479473200,9.90247314453125,5.418750286102295,49.38750076293945,50.66250228881836
1770950136489473300,9.912473388671875,5.568750381469727,49.462501525878906,50.94375228881836
1770950136499473200,9.92247314453125,5.568750381469727,49.63125228881836,51.13125228881836
1770950136509473300,9.932473388671875,6.093750476837158,49.687503814697266,50.906253814697266
1770950136519473200,9.94247314453125,5.681250095367432,49.48125076293945,50.73750305175781
1770950136529473300,9.952473388671875,5.493750095367432,49.66875076293945,50.868751525878906
1770950136539473200,9.96247314453125,5.568750381469727,49.81875228881836,51.13125228881836
1770950136549473300,9.972473388671874,5.175000190734863,50.10000228881836,51.50625228881836
1770950136559473200,9.98247314453125,4.800000190734863,50.45625305175781,51.78750228881836
1770950136569473300,9.992473388671876,4.368750095367432,50.681251525878906,52.05000305175781
1770950136579473200,10.00247314453125,4.162500381469727,51.056251525878906,52.57500076293945
1770950136589473300,10.012473388671875,3.450000047683716,51.31875228881836,53.23125076293945
1770950136599473200,10.02247314453125,3.3000001907348633,51.73125076293945,53.88750076293945
1770950136609473300,10.032473388671875,3.3187501430511475,51.993751525878906,54.39375305175781
1770950136619473200,10.04247314453125,2.9437501430511475,51.937503814697266,54.843753814697266
1770950136629473300,10.052473388671874,2.7375001907348633,51.95625305175781,55.29375076293945
1770950136639473200,10.06247314453125,2.7375001907348633,51.937503814697266,55.462501525878906
1770950136649473300,10.072473388671876,2.512500047683716,51.88125228881836,55.76250076293945
1770950136659473200,10.08247314453125,2.3812501430511475,51.82500076293945,55.743751525878906
1770950136669473300,10.092473388671875,2.5500001907348633,51.73125076293945,55.781253814697266
1770950136679473200,10.10247314453125,2.606250047683716,51.86250305175781,55.81875228881836
1770950136689473300,10.112473388671875,2.53125,51.63750076293945,55.53750228881836
1770950136699473200,10.12247314453125,2.606250047683716,51.900001525878906,55.275001525878906
1770950136709473300,10.132473388671874,2.8687500953674316,51.73125076293945,54.937503814697266
1770950136719473200,10.14247314453125,2.887500047683716,51.843753814697266,54.750003814697266
1770950136729473300,10.152473388671876,3.1312501430511475,51.88125228881836,54.712501525878906
1770950136739473200,10.16247314453125,3.2062501907348633,51.73125076293945,54.82500076293945
1770950136749473300,10.172473388671875,3.3000001907348633,51.88125228881836,55.031253814697266
1770950136759473200,10.18247314453125,3.5062501430511475,51.86250305175781,55.05000305175781
1770950136769473300,10.192473388671875,3.562500238418579,51.78750228881836,55.23750305175781
1770950136779473200,10.20247314453125,3.7875001430511475,51.656253814697266,55.650001525878906
1770950136789473300,10.212473388671874,3.9000000953674316,51.69375228881836,55.85625076293945
1770950136799473200,10.22247314453125,4.162500381469727,51.48750305175781,56.118751525878906
1770950136809473300,10.232473388671876,4.237500190734863,51.525001525878906,56.10000228881836
1770950136819473200,10.24247314453125,4.3125,51.22500228881836,56.08125305175781
1770950136829473300,10.252473388671875,4.237500190734863,51.03750228881836,55.968753814697266
1770950136839473200,10.26247314453125,4.3125,50.83125305175781,56.10000228881836
1770950136849473300,10.272473388671875,4.40625,50.812503814697266,56.212501525878906
1770950136859473200,10.28247314453125,4.200000286102295,50.66250228881836,56.23125076293945
1770950136869473300,10.292473388671874,4.106250286102295,50.531253814697266,56.437503814697266
1770950136879473200,10.30247314453125,4.125,50.60625076293945,56.250003814697266
1770950136889473300,10.312473388671876,3.8812501430511475,50.437503814697266,56.13750076293945
1770950136899473200,10.32247314453125,3.637500047683716,50.718753814697266,56.250003814697266
1770950136909473300,10.332473388671875,3.750000238418579,50.587501525878906,55.968753814697266
1770950136919473200,10.34247314453125,3.6187500953674316,50.41875076293945,55.781253814697266
1770950136929473300,10.352473388671875,3.6187500953674316,50.493751525878906,55.66875076293945
1770950136939473200,10.36247314453125,3.9937500953674316,50.38125228881836,55.462501525878906
1770950136949473300,10.372473388671875,4.256250381469727,50.250003814697266,55.06875228881836
1770950136959473200,10.38247314453125,4.3125,49.85625076293945,54.95625305175781
1770950136969473300,10.392473388671876,4.575000286102295,49.42500305175781,54.63750076293945
1770950136979473200,10.40247314453125,4.987500190734863,49.181251525878906,54.01875305175781
1770950136989473300,10.412473388671875,5.231250286102295,48.82500076293945,53.75625228881836
1770950136999473200,10.42247314453125,5.381250381469727,48.656253814697266,53.51250076293945
1770950137009473300,10.432473388671875,5.493750095367432,48.03750228881836,53.23125076293945
1770950137019473200,10.44247314453125,5.287500381469727,47.868751525878906,52.70625305175781
1770950137029473300,10.452473388671875,5.34375,47.306251525878906,52.16250228881836
1770950137039473200,10.46247314453125,5.887500286102295,47.15625,51.69375228881836
1770950137049473300,10.472473388671874,6,47.118751525878906,51.63750076293945
1770950137059473200,10.48247314453125,6.131250381469727,47.0625,51.937503814697266
1770950137069473300,10.492473388671876,6.168750286102295,46.91250228881836,52.06875228881836
1770950137079473200,10.50247314453125,6.337500095367432,46.5,52.33125305175781
1770950137089473300,10.512473388671875,6.356250286102295,46.59375,52.556251525878906
1770950137099473200,10.52247314453125,6.506250381469727,46.78125,53.17500305175781
1770950137109473300,10.532473388671875,6.543750286102295,47.17500305175781,53.85000228881836
1770950137119473200,10.54247314453125,5.981250286102295,47.28750228881836,54.60000228881836
1770950137129473300,10.552473388671874,5.887500286102295,47.55000305175781,54.95625305175781
1770950137139473200,10.56247314453125,5.775000095367432,47.45625305175781,55.275001525878906
1770950137149473300,10.572473388671876,5.662500381469727,47.92500305175781,55.42500305175781
1770950137159473200,10.58247314453125,5.381250381469727,48.30000305175781,55.44375228881836
1770950137169473300,10.592473388671875,5.287500381469727,48.54375076293945,55.500003814697266
1770950137179473200,10.60247314453125,5.193750381469727,48.54375076293945,55.462501525878906
1770950137189473300,10.612473388671875,4.818750381469727,48.58125305175781,55.51875305175781
1770950137199473200,10.62247314453125,4.6875,48.750003814697266,55.556251525878906
1770950137209473300,10.632473388671874,4.650000095367432,48.76875305175781,55.968753814697266
1770950137219473200,10.64247314453125,4.481250286102295,48.97500228881836,55.85625076293945
1770950137229473300,10.652473388671876,4.162500381469727,49.06875228881836,56.156253814697266
1770950137239473200,10.66247314453125,4.200000286102295,49.181251525878906,56.17500305175781
1770950137249473300,10.672473388671875,4.181250095367432,49.25625228881836,56.47500228881836
1770950137259473200,10.68247314453125,3.9937500953674316,49.38750076293945,56.41875076293945
1770950137269473300,10.692473388671875,3.825000047683716,49.687503814697266,56.26875305175781
1770950137279473200,10.70247314453125,4.106250286102295,49.650001525878906,56.062503814697266
1770950137289473300,10.712473388671874,4.050000190734863,49.875003814697266,55.368751525878906
1770950137299473200,10.72247314453125,4.162500381469727,50.156253814697266,54.843753814697266
1770950137309473300,10.732473388671876,4.275000095367432,50.23125076293945,54.78750228881836
1770950137319473200,10.74247314453125,4.368750095367432,50.60625076293945,54.750003814697266
1770950137329473300,10.752473388671875,4.256250381469727,51.093753814697266,54.69375228881836
1770950137339473200,10.76247314453125,4.387500286102295,51.16875076293945,54.86250305175781
1770950137349473300,10.772473388671875,4.59375,51.243751525878906,55.181251525878906
1770950137359473200,10.78247314453125,4.425000190734863,51.48750305175781,55.23750305175781
1770950137369473300,10.792473388671874,4.462500095367432,51.41250228881836,55.48125076293945
1770950137379473200,10.80247314453125,4.350000381469727,51.468753814697266,56.17500305175781
1770950137389473300,10.812473388671876,4.143750190734863,51.35625076293945,56.250003814697266
1770950137399473200,10.82247314453125,4.162500381469727,51.22500228881836,56.718753814697266
1770950137409473300,10.832473388671875,3.937500238418579,51.13125228881836,56.812503814697266
1770950137419473200,10.84247314453125,3.9937500953674316,51.35625076293945,57.093753814697266
1770950137429473300,10.852473388671875,3.8625001907348633,51.656253814697266,57.11250305175781
1770950137439473200,10.86247314453125,3.468750238418579,51.95625305175781,57.26250076293945
1770950137449473300,10.872473388671875,3.3187501430511475,52.181251525878906,57.712501525878906
1770950137459473200,10.88247314453125,3.0375001430511475,52.25625228881836,57.468753814697266
1770950137469473300,10.892473388671876,2.6625001430511475,52.70625305175781,57.656253814697266
1770950137479473200,10.90247314453125,2.1750001907348633,52.91250228881836,57.48750305175781
1770950137489473300,10.912473388671875,2.15625,53.17500305175781,57.45000076293945
1770950137499473200,10.92247314453125,1.9687501192092896,53.250003814697266,57.056251525878906
1770950137509473300,10.932473388671875,1.9312500953674316,53.062503814697266,56.775001525878906
1770950137519473200,10.94247314453125,2.043750047683716,53.00625228881836,56.906253814697266
1770950137529473300,10.952473388671875,1.9500000476837158,53.19375228881836,56.94375228881836
1770950137539473200,10.96247314453125,2.137500047683716,53.26875305175781,57.093753814697266
1770950137549473300,10.972473388671874,2.4375,53.212501525878906,57.20625305175781
1770950137559473200,10.98247314453125,2.5875000953674316,53.36250305175781,57.16875076293945
1770950137569473300,10.992473388671876,2.625,53.55000305175781,57.150001525878906
1770950137579473200,11.00247314453125,2.34375,53.83125305175781,57.656253814697266
1770950137589473300,11.012473388671875,2.2125000953674316,54.281253814697266,58.01250076293945
1770950137599473200,11.02247314453125,2.1937501430511475,54.656253814697266,57.73125076293945
1770950137609473300,11.032473388671875,2.325000047683716,54.86250305175781,57.60000228881836
1770950137619473200,11.04247314453125,2.418750047683716,54.937503814697266,57.431251525878906
1770950137629473300,11.052473388671874,2.53125,54.95625305175781,56.70000076293945
1770950137639473200,11.06247314453125,2.8500001430511475,54.95625305175781,56.437503814697266
1770950137649473300,11.072473388671876,2.9625000953674316,54.73125076293945,56.28750228881836
1770950137659473200,11.08247314453125,3.075000047683716,54.22500228881836,55.61250305175781
1770950137669473300,11.092473388671875,3.6187500953674316,53.868751525878906,54.97500228881836
1770950137679473200,11.10247314453125,4.012500286102295,53.306251525878906,54.806251525878906
1770950137689473300,11.112473388671875,3.918750047683716,52.931251525878906,54.562503814697266
1770950137699473200,11.12247314453125,3.6187500953674316,52.72500228881836,54.48750305175781
1770950137709473300,11.132473388671874,3.8625001907348633,52.687503814697266,54.50625228881836
1770950137719473200,11.14247314453125,3.6000001430511475,52.48125076293945,54.31875228881836
1770950137729473300,11.152473388671876,3.3937501907348633,52.38750076293945,54.31875228881836
1770950137739473200,11.16247314453125,3.6000001430511475,52.57500076293945,54.525001525878906
1770950137749473300,11.172473388671875,3.3000001907348633,52.33125305175781,54.431251525878906
1770950137759473200,11.18247314453125,3.262500047683716,52.218753814697266,54.41250228881836
1770950137769473300,11.192473388671875,3.450000047683716,52.42500305175781,54.50625228881836
1770950137779473200,11.20247314453125,4.012500286102295,52.06875228881836,54.60000228881836
1770950137789473300,11.212473388671874,3.9937500953674316,51.73125076293945,54.67500305175781
1770950137799473200,11.22247314453125,4.200000286102295,51.48750305175781,54.76875305175781
1770950137809473300,11.232473388671876,4.425000190734863,51.01875305175781,54.900001525878906
1770950137819473200,11.24247314453125,4.181250095367432,50.73750305175781,55.14375305175781
1770950137829473300,11.252473388671875,4.368750095367432,50.775001525878906,55.462501525878906
1770950137839473200,11.26247314453125,4.256250381469727,50.812503814697266,55.275001525878906
1770950137849473300,11.272473388671875,4.3125,50.60625076293945,54.618751525878906
1770950137859473200,11.28247314453125,4.087500095367432,51.07500076293945,54.35625076293945
1770950137869473300,11.292473388671874,4.03125,51.41250228881836,54.093753814697266
1770950137879473200,11.30247314453125,3.843750238418579,51.97500228881836,54.07500076293945
1770950137889473300,11.312473388671876,3.750000238418579,52.51875305175781,53.66250228881836
1770950137899473200,11.32247314453125,3.7125000953674316,52.837501525878906,52.931251525878906
1770950137909473300,11.332473388671875,3.562500238418579,53.08125305175781,52.556251525878906
1770950137919473200,11.34247314453125,3.7687501907348633,53.51250076293945,52.500003814697266
1770950137929473300,11.352473388671875,3.750000238418579,53.79375076293945,52.91250228881836
1770950137939473200,11.36247314453125,3.562500238418579,53.64375305175781,52.72500228881836
1770950137949473300,11.372473388671875,3.5062501430511475,53.60625076293945,53.025001525878906
1770950137959473200,11.38247314453125,3.7875001430511475,53.41875076293945,52.98750305175781
1770950137979473200,11.40247314453125,3.9750001430511475,53.212501525878906,53.19375228881836
1770950137989473300,11.412473388671875,4.012500286102295,52.95000076293945,53.04375076293945
1770950137999473200,11.42247314453125,3.9562501907348633,52.875003814697266,53.41875076293945
1770950138009473300,11.432473388671875,3.8812501430511475,52.650001525878906,53.23125076293945
1770950138029473300,11.452473388671875,3.918750047683716,52.53750228881836,52.72500228881836
1770950138039473200,11.46247314453125,3.918750047683716,52.275001525878906,52.35000228881836
1770950138049473300,11.472473388671874,3.9000000953674316,51.937503814697266,52.16250228881836
1770950138059473200,11.48247314453125,4.425000190734863,51.618751525878906,51.50625228881836
1770950138069473300,11.492473388671876,4.481250286102295,51.525001525878906,51.187503814697266
1770950138079473200,11.50247314453125,4.556250095367432,51.30000305175781,50.64375305175781
1770950138089473300,11.512473388671875,4.612500190734863,51.093753814697266,50.437503814697266
1770950138099473200,11.52247314453125,4.631250381469727,51.056251525878906,50.625003814697266
1770950138109473300,11.532473388671875,4.893750190734863,51.000003814697266,50.85000228881836
1770950138119473200,11.54247314453125,4.800000190734863,51.07500076293945,51.056251525878906
1770950138129473300,11.552473388671874,4.575000286102295,51.26250076293945,51.45000076293945
1770950138139473200,11.56247314453125,4.275000095367432,51.45000076293945,51.86250305175781
1770950138149473300,11.572473388671876,4.125,51.67500305175781,52.462501525878906
1770950138159473200,11.58247314453125,3.731250047683716,51.67500305175781,53.00625228881836
1770950138169473300,11.592473388671875,3.4875001907348633,52.01250076293945,53.250003814697266
1770950138179473200,11.60247314453125,3.6187500953674316,52.125003814697266,53.306251525878906
1770950138189473300,11.612473388671875,3.468750238418579,52.556251525878906,53.56875228881836
1770950138199473200,11.62247314453125,3.375000238418579,52.72500228881836,53.70000076293945
1770950138209473300,11.632473388671874,3.4875001907348633,52.66875076293945,53.51250076293945
1770950138219473200,11.64247314453125,3.5812501907348633,52.556251525878906,53.32500076293945
1770950138229473300,11.652473388671876,3.5250000953674316,52.51875305175781,53.212501525878906
1770950138239473200,11.66247314453125,3.637500047683716,52.593753814697266,52.875003814697266
1770950138249473300,11.672473388671875,3.825000047683716,52.61250305175781,53.00625228881836
1770950138259473200,11.68247314453125,3.4312500953674316,52.63125228881836,52.781253814697266
1770950138269473300,11.692473388671875,3.2437500953674316,52.687503814697266,52.57500076293945
1770950138279473200,11.70247314453125,3.187500238418579,52.781253814697266,52.650001525878906
1770950138289473300,11.712473388671874,3.2250001430511475,53.17500305175781,52.89375305175781
1770950138299473200,11.72247314453125,2.90625,53.66250228881836,53.118751525878906
1770950138309473300,11.732473388671876,2.8687500953674316,54.11250305175781,53.306251525878906
1770950138319473200,11.74247314453125,2.9437501430511475,54.45000076293945,53.45625305175781
1770950138329473300,11.752473388671875,2.90625,54.60000228881836,53.400001525878906
1770950138339473200,11.76247314453125,3.1125001907348633,54.88125228881836,53.60625076293945
1770950138349473300,11.772473388671875,3.168750047683716,54.97500228881836,53.66250228881836
1770950138359473200,11.78247314453125,3.075000047683716,54.993751525878906,53.17500305175781
1770950138369473300,11.792473388671874,3.1500000953674316,55.16250228881836,52.76250076293945
1770950138379473200,11.80247314453125,3.281250238418579,55.33125305175781,52.70625305175781
1770950138389473300,11.812473388671876,3.3375000953674316,55.29375076293945,52.44375228881836
1770950138399473200,11.82247314453125,3.3000001907348633,55.368751525878906,52.05000305175781
1770950138409473300,11.832473388671875,3.1500000953674316,55.593753814697266,51.50625228881836
1770950138419473200,11.84247314453125,2.981250047683716,55.91250228881836,51.431251525878906
1770950138429473300,11.852473388671875,3.2437500953674316,56.32500076293945,51.187503814697266
1770950138439473200,11.86247314453125,3.4125001430511475,56.868751525878906,51.375003814697266
1770950138449473300,11.872473388671875,3.2437500953674316,57.30000305175781,51.50625228881836
1770950138459473200,11.88247314453125,3.1312501430511475,57.618751525878906,51.41250228881836
1770950138469473300,11.892473388671876,3.3375000953674316,58.031253814697266,51.243751525878906
1770950138479473200,11.90247314453125,3.4125001430511475,58.500003814697266,51.150001525878906
1770950138489473300,11.912473388671875,3.637500047683716,58.80000305175781,51.243751525878906
1770950138499473200,11.92247314453125,4.181250095367432,58.781253814697266,50.343753814697266
1770950138509473300,11.932473388671875,3.9750001430511475,58.70625305175781,49.91250228881836
1770950138519473200,11.94247314453125,4.106250286102295,58.875003814697266,49.687503814697266
1770950138529473300,11.952473388671875,4.331250190734863,58.76250076293945,49.462501525878906
1770950138539473200,11.96247314453125,4.5,58.66875076293945,49.275001525878906
1770950138549473300,11.972473388671874,4.3125,58.48125076293945,49.125003814697266
1770950138559473200,11.98247314453125,4.162500381469727,58.38750076293945,49.05000305175781
1770950138569473300,11.992473388671876,4.012500286102295,58.312503814697266,49.181251525878906
1770950138579473200,12.00247314453125,3.750000238418579,58.42500305175781,49.556251525878906
1770950138589473300,12.012473388671875,3.6937501430511475,58.33125305175781,49.743751525878906
1770950138599473200,12.02247314453125,3.5812501907348633,58.087501525878906,49.743751525878906
1770950138609473300,12.032473388671875,3.6750001907348633,58.33125305175781,49.875003814697266
1770950138619473200,12.04247314453125,3.7875001430511475,58.500003814697266,49.89375305175781
1770950138629473300,12.052473388671874,4.012500286102295,58.80000305175781,49.89375305175781
1770950138639473200,12.06247314453125,4.21875,58.89375305175781,49.95000076293945
1770950138649473300,12.072473388671876,4.650000095367432,59.00625228881836,49.556251525878906
1770950138659473200,12.08247314453125,4.6875,59.28750228881836,49.44375228881836
1770950138669473300,12.092473388671875,4.818750381469727,59.70000076293945,49.23750305175781
1770950138679473200,12.10247314453125,4.837500095367432,60.000003814697266,49.06875228881836
1770950138689473300,12.112473388671875,4.931250095367432,60.16875076293945,48.95625305175781
1770950138699473200,12.12247314453125,4.912500381469727,60.468753814697266,49.05000305175781
1770950138709473300,12.132473388671874,4.893750190734863,60.60000228881836,48.95625305175781
1770950138719473200,12.14247314453125,4.987500190734863,60.86250305175781,48.993751525878906
1770950138729473300,12.152473388671876,4.725000381469727,60.993751525878906,49.48125076293945
1770950138739473200,12.16247314453125,4.575000286102295,61.14375305175781,49.95000076293945
1770950138749473300,12.172473388671875,4.59375,61.44375228881836,50.400001525878906
1770950138759473200,12.18247314453125,4.443750381469727,61.70625305175781,50.55000305175781
1770950138769473300,12.192473388671875,4.143750190734863,61.95000076293945,50.437503814697266
1770950138779473200,12.20247314453125,3.9000000953674316,62.156253814697266,50.32500076293945
1770950138789473300,12.212473388671874,3.843750238418579,62.51250076293945,50.47500228881836
1770950138799473200,12.22247314453125,3.8812501430511475,62.85000228881836,50.64375305175781
1770950138809473300,12.232473388671876,3.6000001430511475,63.26250076293945,50.45625305175781
1770950138819473200,12.24247314453125,3.843750238418579,63.337501525878906,50.41875076293945
1770950138829473300,12.252473388671875,3.6750001907348633,63.45000076293945,50.75625228881836
1770950138839473200,12.26247314453125,3.637500047683716,63.618751525878906,51.056251525878906
1770950138849473300,12.272473388671875,3.468750238418579,63.843753814697266,51.431251525878906
1770950138859473200,12.28247314453125,3.4125001430511475,64.05000305175781,51.60000228881836
1770950138869473300,12.292473388671874,3.1312501430511475,64.14375305175781,51.900001525878906
1770950138879473200,12.30247314453125,2.90625,64.29375457763672,52.06875228881836
1770950138889473300,12.312473388671876,2.90625,64.38750457763672,52.44375228881836
1770950138899473200,12.32247314453125,2.325000047683716,64.6500015258789,52.687503814697266
1770950138909473300,12.332473388671875,2.2875001430511475,64.66875457763672,52.42500305175781
1770950138919473200,12.34247314453125,2.2125000953674316,64.78125,52.33125305175781
1770950138929473300,12.352473388671875,2.3625001907348633,64.7437515258789,51.76875305175781
1770950138939473200,12.36247314453125,2.6437501907348633,64.40625,51.82500076293945
1770950138949473300,12.372473388671875,2.700000047683716,64.125,51.60000228881836
1770950138959473200,12.38247314453125,2.325000047683716,63.993751525878906,51.58125305175781
1770950138969473300,12.392473388671876,2.043750047683716,63.937503814697266,51.60000228881836
1770950138979473200,12.40247314453125,2.34375,63.562503814697266,51.63750076293945
1770950138989473300,12.412473388671875,2.231250047683716,63.243751525878906,51.67500305175781
1770950138999473200,12.42247314453125,2.4375,63.16875076293945,52.06875228881836
1770950139009473300,12.432473388671875,2.418750047683716,62.962501525878906,52.837501525878906
1770950139019473200,12.44247314453125,2.25,62.812503814697266,52.743751525878906
1770950139029473300,12.452473388671875,2.3625001907348633,62.625003814697266,52.33125305175781
1770950139039473200,12.46247314453125,2.8125,62.28750228881836,51.806251525878906
1770950139049473300,12.472473388671874,3.4312500953674316,61.80000305175781,50.812503814697266
1770950139069473300,12.492473388671876,4.556250095367432,60.54375076293945,47.66250228881836
1770950139079473200,12.50247314453125,4.875,59.79375076293945,45.48750305175781
1770950139089473300,12.512473388671875,5.287500381469727,59.08125305175781,43.76250076293945
1770950139109473300,12.532473388671875,6.112500190734863,57.900001525878906,40.63125228881836
1770950139119473200,12.54247314453125,6.487500190734863,57.525001525878906,39.58125305175781
1770950139129473300,12.552473388671874,6.393750190734863,57.056251525878906,38.92500305175781
1770950139139473200,12.56247314453125,6.487500190734863,57.093753814697266,38.64375305175781
1770950139149473300,12.572473388671876,6.262500286102295,57.150001525878906,39.07500076293945
1770950139159473200,12.58247314453125,5.90625,57.22500228881836,39.58125305175781
1770950139169473300,12.592473388671875,5.793750286102295,57.48750305175781,40.21875
1770950139179473200,12.60247314453125,5.512500286102295,57.91875076293945,41.775001525878906
1770950139189473300,12.612473388671875,5.212500095367432,58.14375305175781,42.78750228881836
1770950139199473200,12.62247314453125,4.912500381469727,58.125003814697266,43.70625305175781
1770950139209473300,12.632473388671874,5.231250286102295,58.125003814697266,43.89375305175781
1770950139219473200,12.64247314453125,5.212500095367432,58.218753814697266,44.10000228881836
1770950139229473300,12.652473388671876,5.118750095367432,58.33125305175781,44.306251525878906
1770950139239473200,12.66247314453125,5.193750381469727,58.312503814697266,44.98125076293945
1770950139249473300,12.672473388671875,4.96875,58.14375305175781,45.30000305175781
1770950139259473200,12.68247314453125,4.575000286102295,57.95625305175781,45.30000305175781
1770950139269473300,12.692473388671875,4.59375,57.88125228881836,45.31875228881836
1770950139279473200,12.70247314453125,4.443750381469727,58.01250076293945,44.962501525878906
1770950139289473300,12.712473388671874,3.8625001907348633,58.218753814697266,45.82500076293945
1770950139299473200,12.72247314453125,3.468750238418579,58.406253814697266,46.462501525878906
1770950139309473300,12.732473388671876,3.6000001430511475,58.406253814697266,46.42500305175781
1770950139319473200,12.74247314453125,3.5812501907348633,58.48125076293945,46.875
1770950139329473300,12.752473388671875,4.050000190734863,58.462501525878906,46.66875076293945
1770950139339473200,12.76247314453125,4.387500286102295,58.875003814697266,47.00625228881836
1770950139349473300,12.772473388671875,4.462500095367432,58.76250076293945,47.19375228881836
1770950139359473200,12.78247314453125,4.425000190734863,58.650001525878906,47.60625076293945
1770950139369473300,12.792473388671874,4.481250286102295,58.781253814697266,47.45625305175781
1770950139379473200,12.80247314453125,4.556250095367432,58.72500228881836,47.212501525878906
1770950139389473300,12.812473388671876,4.106250286102295,58.98750305175781,47.88750076293945
1770950139399473200,12.82247314453125,4.050000190734863,58.98750305175781,47.025001525878906
1770950139409473300,12.832473388671875,3.6750001907348633,59.38125228881836,46.650001525878906
1770950139419473200,12.84247314453125,3.750000238418579,59.343753814697266,45.375
1770950139429473300,12.852473388671875,3.9000000953674316,59.79375076293945,44.66250228881836
1770950139439473200,12.86247314453125,4.21875,60.11250305175781,43.743751525878906
1770950139449473300,12.872473388671875,3.9937500953674316,60.50625228881836,43.66875076293945
1770950139469473300,12.892473388671876,4.5,61.10625076293945,43.06875228881836
1770950139479473200,12.90247314453125,4.631250381469727,61.51875305175781,43.6875
1770950139489473300,12.912473388671875,4.762500286102295,61.38750076293945,43.95000076293945
1770950139499473200,12.92247314453125,4.59375,61.593753814697266,44.8125
1770950139509473300,12.932473388671875,4.200000286102295,61.70625305175781,45.31875228881836
1770950139519473200,12.94247314453125,3.9562501907348633,61.95000076293945,45.900001525878906
1770950139529473300,12.952473388671875,4.162500381469727,61.91250228881836,45.9375
1770950139539473200,12.96247314453125,4.068750381469727,61.80000305175781,45.95625305175781
1770950139549473300,12.972473388671874,4.050000190734863,62.025001525878906,46.275001525878906
1770950139559473200,12.98247314453125,4.256250381469727,62.04375076293945,45.91875076293945
1770950139569473300,12.992473388671876,4.143750190734863,62.343753814697266,45.91875076293945
1770950139579473200,13.00247314453125,4.350000381469727,62.13750076293945,45.525001525878906
1770950139589473300,13.012473388671875,5.212500095367432,62.04375076293945,44.92500305175781
1770950139599473200,13.02247314453125,5.643750190734863,61.98750305175781,44.8125
1770950139609473300,13.032473388671875,6.225000381469727,61.500003814697266,44.08125305175781
1770950139619473200,13.04247314453125,6.712500095367432,61.35000228881836,43.81875228881836
1770950139629473300,13.052473388671874,6.975000381469727,61.218753814697266,43.01250076293945
1770950139639473200,13.06247314453125,7.050000190734863,60.95625305175781,42.84375
1770950139649473300,13.072473388671876,7.143750190734863,60.82500076293945,42.88125228881836
1770950139659473200,13.08247314453125,7.387500286102295,60.73125076293945,43.10625076293945
1770950139669473300,13.092473388671875,6.918750286102295,60.73125076293945,43.40625
1770950139679473200,13.10247314453125,6.712500095367432,60.712501525878906,43.51875305175781
1770950139689473300,13.112473388671875,6.112500190734863,61.031253814697266,44.0625
1770950139699473200,13.12247314453125,5.606250286102295,61.33125305175781,44.73750305175781
1770950139709473300,13.132473388671874,5.90625,61.181251525878906,44.868751525878906
1770950139719473200,13.14247314453125,5.925000190734863,61.44375228881836,44.47500228881836
1770950139729473300,13.152473388671876,5.71875,61.593753814697266,44.23125076293945
1770950139739473200,13.16247314453125,5.512500286102295,61.98750305175781,44.17500305175781
1770950139749473300,13.172473388671875,5.512500286102295,62.23125076293945,44.56875228881836
1770950139759473200,13.18247314453125,5.793750286102295,62.55000305175781,44.66250228881836
1770950139769473300,13.192473388671875,5.868750095367432,62.962501525878906,45.150001525878906
1770950139779473200,13.20247314453125,6.075000286102295,63.30000305175781,45.337501525878906
1770950139789473300,13.212473388671874,5.568750381469727,63.562503814697266,46.35000228881836
1770950139799473200,13.22247314453125,5.268750190734863,63.67500305175781,47.400001525878906
1770950139809473300,13.232473388671876,5.100000381469727,63.86250305175781,48.562503814697266
1770950139819473200,13.24247314453125,4.837500095367432,64.20000457763672,49.556251525878906
1770950139829473300,13.252473388671875,4.575000286102295,64.23750305175781,50.10000228881836
1770950139839473200,13.26247314453125,3.825000047683716,64.35000610351562,50.85000228881836
1770950139849473300,13.272473388671875,3.9562501907348633,64.1812515258789,50.73750305175781
1770950139859473200,13.28247314453125,3.5250000953674316,64.06875610351562,50.868751525878906
1770950139869473300,13.292473388671874,3.093750238418579,64.23750305175781,51.07500076293945
1770950139879473200,13.30247314453125,3.187500238418579,64.1812515258789,51.01875305175781
1770950139889473300,13.312473388671876,3.3937501907348633,64.33125305175781,51.093753814697266
1770950139899473200,13.32247314453125,3.6000001430511475,63.91875076293945,50.60625076293945
1770950139909473300,13.332473388671875,3.5062501430511475,63.843753814697266,50.493751525878906
1770950139919473200,13.34247314453125,3.7875001430511475,63.618751525878906,50.32500076293945
1770950139929473300,13.352473388671875,3.6750001907348633,63.525001525878906,50.681251525878906
1770950139939473200,13.36247314453125,3.9937500953674316,63.22500228881836,50.56875228881836
1770950139949473300,13.372473388671875,4.200000286102295,63.01875305175781,50.531253814697266
1770950139959473200,13.38247314453125,3.8625001907348633,63.150001525878906,50.88750076293945
1770950139969473300,13.392473388671876,3.6187500953674316,62.868751525878906,50.56875228881836
1770950139979473200,13.40247314453125,3.3187501430511475,62.92500305175781,50.92500305175781
1770950139989473300,13.412473388671875,3.5250000953674316,62.66250228881836,50.868751525878906
1770950139999473200,13.42247314453125,3.3000001907348633,62.73750305175781,50.88750076293945
1770950140009473300,13.432473388671875,3.281250238418579,63.11250305175781,50.906253814697266
1770950140019473200,13.44247314453125,3.2250001430511475,63.26250076293945,50.64375305175781
1770950140029473300,13.452473388671875,3.2250001430511475,63.187503814697266,50.19375228881836
1770950140039473200,13.46247314453125,3.562500238418579,62.868751525878906,49.593753814697266
1770950140049473300,13.472473388671874,3.450000047683716,62.85000228881836,49.61250305175781
1770950140059473200,13.48247314453125,3.731250047683716,62.587501525878906,49.406253814697266
1770950140069473300,13.492473388671876,3.4125001430511475,62.625003814697266,49.42500305175781
1770950140079473200,13.50247314453125,3.375000238418579,62.41875076293945,49.53750228881836
1770950140089473300,13.512473388671875,3.3000001907348633,61.76250076293945,49.29375076293945
1770950140099473200,13.52247314453125,2.8125,61.500003814697266,50.04375076293945
1770950140109473300,13.532473388671875,2.700000047683716,61.06875228881836,50.306251525878906
1770950140119473200,13.54247314453125,2.3062500953674316,60.78750228881836,50.75625228881836
1770950140129473300,13.552473388671874,2.5500001907348633,60.39375305175781,50.868751525878906
1770950140139473200,13.56247314453125,2.137500047683716,60.431251525878906,51.01875305175781
1770950140149473300,13.572473388671876,2.3062500953674316,60.187503814697266,50.92500305175781
1770950140159473200,13.58247314453125,2.4750001430511475,59.868751525878906,50.92500305175781
1770950140169473300,13.592473388671875,2.4562501907348633,60.056251525878906,51.337501525878906
1770950140179473200,13.60247314453125,2.71875,59.94375228881836,51.093753814697266
1770950140189473300,13.612473388671875,2.700000047683716,59.85000228881836,51.281253814697266
1770950140199473200,13.62247314453125,2.71875,60.03750228881836,51.54375076293945
1770950140209473300,13.632473388671874,2.6812500953674316,60.22500228881836,51.712501525878906
1770950140219473200,13.64247314453125,2.8500001430511475,60.31875228881836,51.95625305175781
1770950140229473300,13.652473388671876,2.90625,60.50625228881836,52.087501525878906
