time,seconds_elapsed,z,y,x
1770950126779473200,0.20247314453125,-14.137500762939453,-11.58750057220459,-15.000000953674316
1770950126789473300,0.212473388671875,-13.800000190734863,-12.468750953674316,-14.625000953674316
1770950126799473200,0.22247314453125,-14.137500762939453,-12.825000762939453,-14.68125057220459
1770950126819473200,0.24247314453125,-14.662500381469727,-12.093750953674316,-13.08750057220459
1770950126829473300,0.252473388671875,-14.850000381469727,-11.981250762939453,-12.731250762939453
1770950126839473200,0.26247314453125,-14.96250057220459,-11.831250190734863,-12.05625057220459
1770950126849473300,0.272473388671875,-15.093750953674316,-11.756250381469727,-11.77500057220459
1770950126859473200,0.28247314453125,-15.112500190734863,-11.568750381469727,-11.21250057220459
1770950126869473300,0.292473388671875,-15.468750953674316,-11.043750762939453,-10.83750057220459
1770950126879473200,0.30247314453125,-15.768750190734863,-10.36875057220459,-10.668750762939453
1770950126889473300,0.312473388671875,-15.581250190734863,-10.350000381469727,-11.49375057220459
1770950126899473200,0.32247314453125,-15.281250953674316,-9.825000762939453,-12.843750953674316
1770950126909473300,0.332473388671875,-15.24375057220459,-9.487500190734863,-13.55625057220459
1770950126919473200,0.34247314453125,-15.24375057220459,-9,-14.193750381469727
1770950126929473300,0.352473388671875,-14.96250057220459,-8.34375,-15.000000953674316
1770950126939473200,0.36247314453125,-15.131250381469727,-8.268750190734863,-15.487500190734863
1770950126949473300,0.372473388671875,-15.018750190734863,-7.668750286102295,-15.112500190734863
1770950126959473200,0.38247314453125,-15.000000953674316,-7.312500476837158,-14.662500381469727
1770950126969473300,0.392473388671875,-15.300000190734863,-6.731250286102295,-13.875000953674316
1770950126979473200,0.40247314453125,-15.693750381469727,-6.375000476837158,-12.600000381469727
1770950126989473300,0.412473388671875,-15.90000057220459,-5.887500286102295,-11.77500057220459
1770950126999473200,0.42247314453125,-16.23750114440918,-5.831250190734863,-11.512500762939453
1770950127009473300,0.432473388671875,-16.59375,-5.71875,-10.762500762939453
1770950127019473200,0.44247314453125,-16.80000114440918,-5.212500095367432,-10.481250762939453
1770950127029473300,0.452473388671875,-16.856250762939453,-5.381250381469727,-11.043750762939453
1770950127039473200,0.46247314453125,-17.025001525878906,-5.418750286102295,-11.475000381469727
1770950127049473300,0.472473388671875,-16.650001525878906,-5.568750381469727,-12.131250381469727
1770950127059473200,0.48247314453125,-16.537500381469727,-5.962500095367432,-12.468750953674316
1770950127069473300,0.492473388671875,-16.42500114440918,-6.375000476837158,-13.106250762939453
1770950127079473200,0.50247314453125,-15.975000381469727,-6.318750381469727,-13.612500190734863
1770950127089473300,0.512473388671875,-15.731250762939453,-6.562500476837158,-14.02500057220459
1770950127099473200,0.52247314453125,-15.61875057220459,-6.768750190734863,-13.893750190734863
1770950127109473300,0.532473388671875,-15.375000953674316,-6.862500190734863,-13.706250190734863
1770950127119473200,0.54247314453125,-14.925000190734863,-7.143750190734863,-13.687500953674316
1770950127129473300,0.552473388671875,-14.77500057220459,-7.218750476837158,-13.537500381469727
1770950127139473200,0.56247314453125,-14.700000762939453,-7.500000476837158,-13.500000953674316
1770950127149473300,0.572473388671875,-14.362500190734863,-7.462500095367432,-13.46250057220459
1770950127159473200,0.58247314453125,-14.21250057220459,-7.687500476837158,-13.36875057220459
1770950127169473300,0.592473388671875,-14.287500381469727,-7.743750095367432,-13.200000762939453
1770950127179473200,0.60247314453125,-13.893750190734863,-7.743750095367432,-13.500000953674316
1770950127189473300,0.612473388671875,-13.668750762939453,-8.043750762939453,-14.137500762939453
1770950127199473200,0.62247314453125,-13.36875057220459,-8.100000381469727,-14.231250762939453
1770950127209473300,0.632473388671875,-13.36875057220459,-8.15625,-13.912500381469727
1770950127219473200,0.64247314453125,-13.106250762939453,-8.100000381469727,-13.687500953674316
1770950127229473300,0.652473388671875,-13.031250953674316,-8.193750381469727,-13.443750381469727
1770950127239473200,0.66247314453125,-13.012500762939453,-8.4375,-13.781250953674316
1770950127249473300,0.672473388671875,-12.843750953674316,-8.40000057220459,-14.02500057220459
1770950127259473200,0.68247314453125,-12.937500953674316,-8.58750057220459,-13.912500381469727
1770950127269473300,0.692473388671875,-13.050000190734863,-8.643750190734863,-13.443750381469727
1770950127279473200,0.70247314453125,-13.200000762939453,-8.53125,-13.575000762939453
1770950127289473300,0.712473388671875,-13.312500953674316,-8.68125057220459,-14.062500953674316
1770950127299473200,0.72247314453125,-13.575000762939453,-8.53125,-14.21250057220459
1770950127309473300,0.732473388671875,-13.425000190734863,-8.362500190734863,-14.793750762939453
1770950127319473200,0.74247314453125,-12.956250190734863,-8.100000381469727,-14.77500057220459
1770950127329473300,0.752473388671875,-12.43125057220459,-8.21250057220459,-15.600000381469727
1770950127339473200,0.76247314453125,-12.300000190734863,-7.912500381469727,-15.80625057220459
1770950127349473300,0.772473388671875,-12.562500953674316,-7.387500286102295,-15.731250762939453
1770950127359473200,0.78247314453125,-12.262500762939453,-7.293750286102295,-15.375000953674316
1770950127369473300,0.792473388671875,-12.075000762939453,-7.012500286102295,-15.24375057220459
1770950127379473200,0.80247314453125,-12.037500381469727,-7.050000190734863,-15.33750057220459
1770950127389473300,0.812473388671875,-12.187500953674316,-7.350000381469727,-14.756250381469727
1770950127399473200,0.82247314453125,-12.487500190734863,-7.556250095367432,-14.531250953674316
1770950127409473300,0.832473388671875,-13.031250953674316,-7.725000381469727,-13.331250190734863
1770950127419473200,0.84247314453125,-13.18125057220459,-8.100000381469727,-13.18125057220459
1770950127429473300,0.852473388671875,-12.825000762939453,-8.662500381469727,-13.031250953674316
1770950127439473200,0.86247314453125,-13.050000190734863,-8.90625,-13.012500762939453
1770950127449473300,0.872473388671875,-12.881250381469727,-9.450000762939453,-13.031250953674316
1770950127459473200,0.88247314453125,-12.693750381469727,-9.65625,-12.975000381469727
1770950127469473300,0.892473388671875,-12.61875057220459,-9.975000381469727,-12.862500190734863
1770950127479473200,0.90247314453125,-12.562500953674316,-10.143750190734863,-12.375000953674316
1770950127489473300,0.912473388671875,-12.112500190734863,-10.21875,-12.61875057220459
1770950127499473200,0.92247314453125,-11.981250762939453,-10.537500381469727,-12.693750381469727
1770950127509473300,0.932473388671875,-11.86875057220459,-10.725000381469727,-13.125000953674316
1770950127519473200,0.94247314453125,-11.40000057220459,-11.15625,-13.331250190734863
1770950127529473300,0.952473388671875,-11.30625057220459,-11.137500762939453,-12.975000381469727
1770950127539473200,0.96247314453125,-11.21250057220459,-11.53125,-13.012500762939453
1770950127549473300,0.972473388671875,-11.231250762939453,-11.34375,-12.843750953674316
1770950127559473200,0.98247314453125,-10.893750190734863,-11.643750190734863,-13.218750953674316
1770950127569473300,0.992473388671875,-10.631250381469727,-11.756250381469727,-12.99375057220459
1770950127579473200,1.00247314453125,-10.575000762939453,-11.793750762939453,-12.881250381469727
1770950127589473300,1.012473388671875,-10.3125,-12.093750953674316,-12.881250381469727
1770950127599473200,1.02247314453125,-10.5,-12.262500762939453,-13.256250381469727
1770950127609473300,1.032473388671875,-10.55625057220459,-12.862500190734863,-14.437500953674316
1770950127619473200,1.04247314453125,-9.9375,-12.918750762939453,-15.450000762939453
1770950127629473300,1.052473388671875,-9.5625,-13.425000190734863,-17.0625
1770950127639473200,1.06247314453125,-9.543750762939453,-13.443750381469727,-17.212501525878906
1770950127649473300,1.072473388671875,-9.5625,-13.668750762939453,-17.850000381469727
1770950127659473200,1.08247314453125,-9.450000762939453,-13.818750381469727,-18.037500381469727
1770950127689473300,1.112473388671875,-9.33750057220459,-12.956250190734863,-16.631250381469727
1770950127699473200,1.12247314453125,-9.637500762939453,-12.731250762939453,-15.487500190734863
1770950127709473300,1.132473388671875,-9.80625057220459,-12.33750057220459,-14.193750381469727
1770950127719473200,1.14247314453125,-9.9375,-12.15000057220459,-13.818750381469727
1770950127729473300,1.152473388671875,-10.012500762939453,-11.887500762939453,-13.575000762939453
1770950127739473200,1.16247314453125,-9.80625057220459,-11.77500057220459,-13.612500190734863
1770950127749473300,1.172473388671875,-9.75,-11.8125,-13.331250190734863
1770950127759473200,1.18247314453125,-9.52500057220459,-11.700000762939453,-13.143750190734863
1770950127769473300,1.192473388671875,-9.28125,-11.606250762939453,-13.012500762939453
1770950127779473200,1.20247314453125,-9.112500190734863,-11.550000190734863,-13.125000953674316
1770950127789473300,1.212473388671875,-8.96250057220459,-11.4375,-13.143750190734863
1770950127799473200,1.22247314453125,-8.756250381469727,-11.362500190734863,-13.387500762939453
1770950127809473300,1.232473388671875,-8.68125057220459,-11.325000762939453,-13.050000190734863
1770950127819473200,1.24247314453125,-8.737500190734863,-10.950000762939453,-12.787500381469727
1770950127829473300,1.252473388671875,-8.625,-10.893750190734863,-13.350000381469727
1770950127839473200,1.26247314453125,-8.625,-10.762500762939453,-13.46250057220459
1770950127849473300,1.272473388671875,-9.075000762939453,-10.518750190734863,-13.36875057220459
1770950127859473200,1.28247314453125,-9.412500381469727,-10.18125057220459,-13.18125057220459
1770950127869473300,1.292473388671875,-9.43125057220459,-10.21875,-12.975000381469727
1770950127879473200,1.30247314453125,-9.731250762939453,-9.80625057220459,-12.637500762939453
1770950127889473300,1.312473388671875,-9.99375057220459,-9.787500381469727,-12.52500057220459
1770950127899473200,1.32247314453125,-10.18125057220459,-9.99375057220459,-12.33750057220459
1770950127909473300,1.332473388671875,-10.46250057220459,-9.731250762939453,-11.475000381469727
1770950127919473200,1.34247314453125,-10.74375057220459,-9.600000381469727,-10.818750381469727
1770950127929473300,1.352473388671875,-10.575000762939453,-9.90000057220459,-10.818750381469727
1770950127939473200,1.36247314453125,-10.612500190734863,-10.125,-10.575000762939453
1770950127949473300,1.372473388671875,-10.575000762939453,-10.350000381469727,-10.800000190734863
1770950127959473200,1.38247314453125,-10.331250190734863,-10.800000190734863,-11.15625
1770950127969473300,1.392473388671875,-10.18125057220459,-11.100000381469727,-11.606250762939453
1770950127979473200,1.40247314453125,-9.80625057220459,-11.30625057220459,-12.15000057220459
1770950127989473300,1.412473388671875,-9.581250190734863,-11.49375057220459,-12.750000953674316
1770950127999473200,1.42247314453125,-9.52500057220459,-11.512500762939453,-13.218750953674316
1770950128009473300,1.432473388671875,-9.262500762939453,-11.362500190734863,-13.706250190734863
1770950128019473200,1.44247314453125,-9,-11.550000190734863,-14.193750381469727
1770950128029473300,1.452473388671875,-9.037500381469727,-11.325000762939453,-14.250000953674316
1770950128039473200,1.46247314453125,-8.943750381469727,-11.418750762939453,-14.737500190734863
1770950128049473300,1.472473388671875,-8.77500057220459,-11.231250762939453,-14.96250057220459
1770950128059473200,1.48247314453125,-8.625,-10.93125057220459,-14.812500953674316
1770950128069473300,1.492473388671875,-8.4375,-11.043750762939453,-15.112500190734863
1770950128079473200,1.50247314453125,-8.550000190734863,-11.02500057220459,-14.718750953674316
1770950128089473300,1.512473388671875,-8.8125,-10.800000190734863,-14.137500762939453
1770950128099473200,1.52247314453125,-9.1875,-10.575000762939453,-13.668750762939453
1770950128109473300,1.532473388671875,-9.131250381469727,-10.612500190734863,-13.350000381469727
1770950128119473200,1.54247314453125,-9.225000381469727,-10.425000190734863,-12.600000381469727
1770950128129473300,1.552473388671875,-9.300000190734863,-10.481250762939453,-12.037500381469727
1770950128139473200,1.56247314453125,-9.600000381469727,-10.631250381469727,-11.8125
1770950128149473300,1.572473388671875,-9.862500190734863,-10.55625057220459,-11.043750762939453
1770950128159473200,1.58247314453125,-9.787500381469727,-10.6875,-11.15625
1770950128169473300,1.592473388671875,-9.75,-10.893750190734863,-11.11875057220459
1770950128179473200,1.60247314453125,-9.412500381469727,-10.987500190734863,-11.21250057220459
1770950128189473300,1.612473388671875,-9.33750057220459,-10.875,-10.856250762939453
1770950128199473200,1.62247314453125,-9.52500057220459,-11.11875057220459,-10.5
1770950128209473300,1.632473388671875,-9.71250057220459,-10.987500190734863,-9.956250190734863
1770950128219473200,1.64247314453125,-9.9375,-10.96875,-9.15000057220459
1770950128229473300,1.652473388671875,-10.08750057220459,-11.21250057220459,-9.037500381469727
1770950128239473200,1.66247314453125,-9.90000057220459,-11.550000190734863,-9.112500190734863
1770950128249473300,1.672473388671875,-9.862500190734863,-12.037500381469727,-9.262500762939453
1770950128259473200,1.68247314453125,-9.84375,-12.52500057220459,-9.862500190734863
1770950128269473300,1.692473388671875,-9.862500190734863,-12.825000762939453,-10.36875057220459
1770950128279473200,1.70247314453125,-9.768750190734863,-12.90000057220459,-10.93125057220459
1770950128289473300,1.712473388671875,-9.731250762939453,-13.200000762939453,-11.268750190734863
1770950128299473200,1.72247314453125,-9.318750381469727,-13.500000953674316,-11.77500057220459
1770950128309473300,1.732473388671875,-9.168750762939453,-13.593750953674316,-12.187500953674316
1770950128319473200,1.74247314453125,-9.075000762939453,-13.537500381469727,-11.943750381469727
1770950128329473300,1.752473388671875,-8.756250381469727,-13.593750953674316,-12.131250381469727
1770950128339473200,1.76247314453125,-8.756250381469727,-13.575000762939453,-11.4375
1770950128349473300,1.772473388671875,-8.662500381469727,-14.062500953674316,-11.34375
1770950128359473200,1.78247314453125,-8.34375,-14.343750953674316,-10.74375057220459
1770950128369473300,1.792473388671875,-8.231250762939453,-15.000000953674316,-10.96875
1770950128379473200,1.80247314453125,-8.02500057220459,-15.168750762939453,-11.15625
1770950128389473300,1.812473388671875,-7.912500381469727,-15.675000190734863,-11.043750762939453
1770950128399473200,1.82247314453125,-7.687500476837158,-16.106250762939453,-11.25
1770950128409473300,1.832473388671875,-7.987500190734863,-16.443750381469727,-11.175000190734863
1770950128419473200,1.84247314453125,-7.781250476837158,-16.6875,-11.325000762939453
1770950128429473300,1.852473388671875,-7.800000190734863,-16.837501525878906,-11.268750190734863
1770950128439473200,1.86247314453125,-7.856250286102295,-17.08125114440918,-11.662500381469727
1770950128449473300,1.872473388671875,-7.800000190734863,-16.96875,-11.4375
1770950128459473200,1.88247314453125,-7.706250190734863,-17.475000381469727,-11.287500381469727
1770950128469473300,1.892473388671875,-7.612500190734863,-17.700000762939453,-11.418750762939453
1770950128479473200,1.90247314453125,-7.518750190734863,-18.09375,-11.081250190734863
1770950128489473300,1.912473388671875,-7.275000095367432,-18.356250762939453,-10.856250762939453
1770950128499473200,1.92247314453125,-7.068750381469727,-18.787500381469727,-10.912500381469727
1770950128509473300,1.932473388671875,-6.881250381469727,-19.162500381469727,-10.893750190734863
1770950128519473200,1.94247314453125,-6.731250286102295,-19.6875,-11.0625
1770950128529473300,1.952473388671875,-6.450000286102295,-20.15625,-11.11875057220459
1770950128539473200,1.96247314453125,-6.450000286102295,-20.231250762939453,-11.11875057220459
1770950128549473300,1.972473388671875,-6.131250381469727,-20.287500381469727,-11.11875057220459
1770950128559473200,1.98247314453125,-6.337500095367432,-20.15625,-11.475000381469727
1770950128569473300,1.992473388671875,-6.131250381469727,-20.25,-11.475000381469727
1770950128579473200,2.00247314453125,-6.262500286102295,-20.400001525878906,-11.325000762939453
1770950128589473300,2.012473388671875,-6.131250381469727,-20.587501525878906,-11.40000057220459
1770950128599473200,2.02247314453125,-5.831250190734863,-20.587501525878906,-11.34375
1770950128609473300,2.032473388671875,-5.475000381469727,-20.64375114440918,-11.71875
1770950128619473200,2.04247314453125,-5.381250381469727,-20.962501525878906,-12.318750381469727
1770950128629473300,2.052473388671875,-5.4375,-21.20625114440918,-12.506250381469727
1770950128639473200,2.06247314453125,-5.100000381469727,-21.412500381469727,-12.80625057220459
1770950128649473300,2.072473388671875,-4.875,-21.543750762939453,-13.237500190734863
1770950128659473200,2.08247314453125,-4.875,-21.637500762939453,-13.631250381469727
1770950128669473300,2.092473388671875,-5.0625,-21.693750381469727,-13.725000381469727
1770950128679473200,2.10247314453125,-5.193750381469727,-21.48750114440918,-13.950000762939453
1770950128689473300,2.112473388671875,-5.493750095367432,-21.431251525878906,-14.175000190734863
1770950128699473200,2.12247314453125,-5.418750286102295,-21.1875,-14.662500381469727
1770950128709473300,2.132473388671875,-5.231250286102295,-21.150001525878906,-14.625000953674316
1770950128719473200,2.14247314453125,-5.137500286102295,-21.375,-14.850000381469727
1770950128729473300,2.152473388671875,-5.456250190734863,-21.48750114440918,-15.037500381469727
1770950128739473200,2.16247314453125,-5.4375,-21.375,-14.793750762939453
1770950128749473300,2.172473388671875,-5.325000286102295,-21.318750381469727,-15.075000762939453
1770950128759473200,2.18247314453125,-5.268750190734863,-21.506250381469727,-14.925000190734863
1770950128769473300,2.192473388671875,-5.418750286102295,-21.450000762939453,-14.568750381469727
1770950128779473200,2.20247314453125,-5.587500095367432,-21.525001525878906,-13.875000953674316
1770950128789473300,2.212473388671875,-5.962500095367432,-21.39375114440918,-13.968750953674316
1770950128799473200,2.22247314453125,-6.431250095367432,-21.243751525878906,-13.725000381469727
1770950128809473300,2.232473388671875,-6.618750095367432,-21,-13.725000381469727
1770950128819473200,2.24247314453125,-6.693750381469727,-20.90625,-13.83750057220459
1770950128829473300,2.252473388671875,-6.900000095367432,-20.4375,-13.93125057220459
1770950128839473200,2.26247314453125,-7.143750190734863,-20.212501525878906,-14.21250057220459
1770950128849473300,2.272473388671875,-7.312500476837158,-20.006250381469727,-14.737500190734863
1770950128859473200,2.28247314453125,-7.143750190734863,-19.668750762939453,-15.075000762939453
1770950128869473300,2.292473388671875,-7.162500381469727,-19.575000762939453,-15.468750953674316
1770950128879473200,2.30247314453125,-6.956250190734863,-19.21875,-15.656250953674316
1770950128889473300,2.312473388671875,-7.143750190734863,-18.86250114440918,-15.862500190734863
1770950128899473200,2.32247314453125,-7.350000381469727,-18.375,-15.843750953674316
1770950128909473300,2.332473388671875,-7.593750476837158,-18.375,-16.05000114440918
1770950128919473200,2.34247314453125,-8.02500057220459,-17.92500114440918,-15.693750381469727
1770950128929473300,2.352473388671875,-8.231250762939453,-17.793750762939453,-15.43125057220459
1770950128939473200,2.36247314453125,-8.643750190734863,-17.681251525878906,-15.356250762939453
1770950128949473300,2.372473388671875,-8.700000762939453,-17.400001525878906,-15.412500381469727
1770950128959473200,2.38247314453125,-9.168750762939453,-16.96875,-15.43125057220459
1770950128969473300,2.392473388671875,-9.28125,-16.78125,-15.187500953674316
1770950128979473200,2.40247314453125,-9.637500762939453,-16.59375,-15.262500762939453
1770950128989473300,2.412473388671875,-9.918750762939453,-16.387500762939453,-14.86875057220459
1770950128999473200,2.42247314453125,-9.881250381469727,-16.42500114440918,-15.281250953674316
1770950129009473300,2.432473388671875,-9.956250190734863,-16.125,-15.281250953674316
1770950129019473200,2.44247314453125,-9.975000381469727,-15.80625057220459,-15.487500190734863
1770950129029473300,2.452473388671875,-9.881250381469727,-15.71250057220459,-16.42500114440918
1770950129039473200,2.46247314453125,-9.80625057220459,-15.675000190734863,-17.006250381469727
1770950129049473300,2.472473388671875,-9.71250057220459,-15.787500381469727,-17.606250762939453
1770950129059473200,2.48247314453125,-9.61875057220459,-15.881250381469727,-17.73750114440918
1770950129069473300,2.492473388671875,-9.5625,-15.581250190734863,-17.868751525878906
1770950129079473200,2.50247314453125,-9.693750381469727,-15.24375057220459,-17.83125114440918
1770950129089473300,2.512473388671875,-9.675000190734863,-15.187500953674316,-17.887500762939453
1770950129099473200,2.52247314453125,-9.956250190734863,-15.000000953674316,-17.64375114440918
1770950129109473300,2.532473388671875,-10.631250381469727,-14.812500953674316,-16.387500762939453
1770950129119473200,2.54247314453125,-11.30625057220459,-14.662500381469727,-15.637500762939453
1770950129129473300,2.552473388671875,-11.77500057220459,-13.968750953674316,-14.793750762939453
1770950129139473200,2.56247314453125,-12,-13.55625057220459,-14.456250190734863
1770950129149473300,2.572473388671875,-12.093750953674316,-13.27500057220459,-14.325000762939453
1770950129159473200,2.58247314453125,-12.356250762939453,-13.237500190734863,-14.21250057220459
1770950129169473300,2.592473388671875,-12.71250057220459,-12.918750762939453,-13.968750953674316
1770950129179473200,2.60247314453125,-12.975000381469727,-12.656250953674316,-13.725000381469727
1770950129189473300,2.612473388671875,-12.99375057220459,-12.356250762939453,-13.65000057220459
1770950129199473200,2.62247314453125,-12.918750762939453,-12.300000190734863,-13.65000057220459
1770950129209473300,2.632473388671875,-12.90000057220459,-12.225000381469727,-13.987500190734863
1770950129219473200,2.64247314453125,-12.99375057220459,-12.318750381469727,-14.325000762939453
1770950129229473300,2.652473388671875,-12.956250190734863,-12.43125057220459,-14.58750057220459
1770950129239473200,2.66247314453125,-12.918750762939453,-12.24375057220459,-14.512500762939453
1770950129249473300,2.672473388671875,-13.050000190734863,-12.018750190734863,-14.550000190734863
1770950129259473200,2.68247314453125,-13.08750057220459,-11.793750762939453,-14.437500953674316
1770950129269473300,2.692473388671875,-13.350000381469727,-11.662500381469727,-14.418750762939453
1770950129279473200,2.70247314453125,-13.55625057220459,-11.456250190734863,-14.21250057220459
1770950129289473300,2.712473388671875,-13.631250381469727,-11.49375057220459,-13.856250762939453
1770950129299473200,2.72247314453125,-13.950000762939453,-11.325000762939453,-13.331250190734863
1770950129309473300,2.732473388671875,-14.268750190734863,-11.287500381469727,-12.731250762939453
1770950129319473200,2.74247314453125,-14.531250953674316,-11.34375,-12.393750190734863
1770950129329473300,2.752473388671875,-14.643750190734863,-11.325000762939453,-12.05625057220459
1770950129339473200,2.76247314453125,-14.831250190734863,-11.625,-11.90625
1770950129349473300,2.772473388671875,-14.86875057220459,-11.737500190734863,-11.568750381469727
1770950129359473200,2.78247314453125,-14.68125057220459,-12.037500381469727,-11.4375
1770950129369473300,2.792473388671875,-14.718750953674316,-12.506250381469727,-11.456250190734863
1770950129379473200,2.80247314453125,-14.68125057220459,-12.637500762939453,-11.568750381469727
1770950129389473300,2.812473388671875,-14.662500381469727,-12.600000381469727,-11.77500057220459
1770950129399473200,2.82247314453125,-14.606250762939453,-12.675000190734863,-11.981250762939453
1770950129409473300,2.832473388671875,-14.231250762939453,-13.08750057220459,-12.90000057220459
1770950129419473200,2.84247314453125,-13.856250762939453,-13.293750762939453,-13.331250190734863
1770950129429473300,2.852473388671875,-13.612500190734863,-13.443750381469727,-13.74375057220459
1770950129439473200,2.86247314453125,-13.500000953674316,-13.481250762939453,-14.40000057220459
1770950129449473300,2.872473388671875,-13.36875057220459,-13.331250190734863,-14.643750190734863
1770950129459473200,2.88247314453125,-13.200000762939453,-13.500000953674316,-14.850000381469727
1770950129469473300,2.892473388671875,-13.256250381469727,-13.631250381469727,-15.225000381469727
1770950129479473200,2.90247314453125,-13.012500762939453,-13.631250381469727,-15.450000762939453
1770950129489473300,2.912473388671875,-13.575000762939453,-13.668750762939453,-15.018750190734863
1770950129499473200,2.92247314453125,-13.631250381469727,-13.631250381469727,-15.037500381469727
1770950129509473300,2.932473388671875,-13.875000953674316,-13.725000381469727,-15.281250953674316
1770950129519473200,2.94247314453125,-14.250000953674316,-13.706250190734863,-15.15000057220459
1770950129529473300,2.952473388671875,-14.550000190734863,-13.781250953674316,-14.96250057220459
1770950129539473200,2.96247314453125,-14.550000190734863,-13.668750762939453,-14.86875057220459
1770950129549473300,2.972473388671875,-14.550000190734863,-13.875000953674316,-14.662500381469727
1770950129559473200,2.98247314453125,-14.793750762939453,-14.175000190734863,-14.550000190734863
1770950129569473300,2.992473388671875,-14.40000057220459,-14.30625057220459,-14.568750381469727
1770950129579473200,3.00247314453125,-14.625000953674316,-14.418750762939453,-14.550000190734863
1770950129589473300,3.012473388671875,-14.550000190734863,-14.418750762939453,-13.893750190734863
1770950129599473200,3.02247314453125,-14.49375057220459,-14.437500953674316,-13.537500381469727
1770950129609473300,3.032473388671875,-14.418750762939453,-14.512500762939453,-13.218750953674316
1770950129619473200,3.04247314453125,-14.606250762939453,-14.662500381469727,-12.975000381469727
1770950129629473300,3.052473388671875,-14.718750953674316,-14.643750190734863,-12.768750190734863
1770950129639473200,3.06247314453125,-14.831250190734863,-14.625000953674316,-12.506250381469727
1770950129649473300,3.072473388671875,-15.131250381469727,-14.68125057220459,-12.075000762939453
1770950129659473200,3.08247314453125,-15.375000953674316,-14.850000381469727,-11.643750190734863
1770950129669473300,3.092473388671875,-15.843750953674316,-15.112500190734863,-11.49375057220459
1770950129679473200,3.10247314453125,-15.731250762939453,-15.375000953674316,-11.475000381469727
1770950129689473300,3.112473388671875,-15.61875057220459,-15.412500381469727,-11.456250190734863
1770950129699473200,3.12247314453125,-15.71250057220459,-15.412500381469727,-11.287500381469727
1770950129709473300,3.132473388671875,-15.600000381469727,-15.375000953674316,-11.287500381469727
1770950129719473200,3.14247314453125,-15.80625057220459,-15.506250381469727,-11.006250381469727
1770950129729473300,3.152473388671875,-15.90000057220459,-15.43125057220459,-10.74375057220459
1770950129739473200,3.16247314453125,-15.731250762939453,-15.43125057220459,-10.6875
1770950129749473300,3.172473388671875,-15.15000057220459,-15.562500953674316,-10.987500190734863
1770950129759473200,3.18247314453125,-15.33750057220459,-15.637500762939453,-10.893750190734863
1770950129769473300,3.192473388671875,-15.61875057220459,-15.693750381469727,-10.78125
1770950129779473200,3.20247314453125,-15.600000381469727,-15.862500190734863,-10.96875
1770950129789473300,3.212473388671875,-15.937500953674316,-15.918750762939453,-10.518750190734863
1770950129799473200,3.22247314453125,-16.05000114440918,-15.937500953674316,-10.5
1770950129809473300,3.232473388671875,-16.162500381469727,-16.05000114440918,-10.40625
1770950129819473200,3.24247314453125,-16.42500114440918,-16.05000114440918,-10.03125
1770950129829473300,3.252473388671875,-16.668750762939453,-15.99375057220459,-9.825000762939453
1770950129839473200,3.26247314453125,-16.40625,-15.90000057220459,-9.84375
1770950129849473300,3.272473388671875,-16.40625,-16.181251525878906,-10.200000762939453
1770950129859473200,3.28247314453125,-16.575000762939453,-16.3125,-9.881250381469727
1770950129869473300,3.292473388671875,-16.59375,-16.537500381469727,-9.731250762939453
1770950129879473200,3.30247314453125,-16.368751525878906,-16.481250762939453,-9.90000057220459
1770950129889473300,3.312473388671875,-16.293750762939453,-16.537500381469727,-10.27500057220459
1770950129899473200,3.32247314453125,-16.03125,-16.575000762939453,-10.59375
1770950129909473300,3.332473388671875,-15.787500381469727,-16.3125,-10.725000381469727
1770950129919473200,3.34247314453125,-16.05000114440918,-16.481250762939453,-10.65000057220459
1770950129929473300,3.352473388671875,-15.693750381469727,-16.42500114440918,-10.575000762939453
1770950129939473200,3.36247314453125,-15.300000190734863,-16.42500114440918,-11.325000762939453
1770950129949473300,3.372473388671875,-14.86875057220459,-16.21875,-11.68125057220459
1770950129959473200,3.38247314453125,-14.662500381469727,-16.200000762939453,-11.756250381469727
1770950129969473300,3.392473388671875,-14.475000381469727,-15.881250381469727,-11.606250762939453
1770950129979473200,3.40247314453125,-14.40000057220459,-15.750000953674316,-11.68125057220459
1770950129989473300,3.412473388671875,-14.831250190734863,-15.825000762939453,-11.58750057220459
1770950129999473200,3.42247314453125,-14.925000190734863,-15.693750381469727,-11.737500190734863
1770950130009473300,3.432473388671875,-15.168750762939453,-15.43125057220459,-11.568750381469727
1770950130019473200,3.44247314453125,-15.43125057220459,-15.356250762939453,-11.53125
1770950130029473300,3.452473388671875,-15.562500953674316,-15.356250762939453,-11.831250190734863
1770950130039473200,3.46247314453125,-15.581250190734863,-15.656250953674316,-12.450000762939453
1770950130049473300,3.472473388671875,-15.450000762939453,-16.012500762939453,-13.050000190734863
1770950130059473200,3.48247314453125,-15.600000381469727,-16.14375114440918,-13.387500762939453
1770950130069473300,3.492473388671875,-15.637500762939453,-16.40625,-13.481250762939453
1770950130079473200,3.50247314453125,-15.562500953674316,-16.387500762939453,-13.500000953674316
1770950130089473300,3.512473388671875,-15.750000953674316,-16.556251525878906,-13.800000190734863
1770950130099473200,3.52247314453125,-15.80625057220459,-16.575000762939453,-13.612500190734863
1770950130109473300,3.532473388671875,-15.99375057220459,-16.856250762939453,-13.518750190734863
1770950130119473200,3.54247314453125,-16.106250762939453,-16.575000762939453,-13.031250953674316
1770950130129473300,3.552473388671875,-16.23750114440918,-16.631250381469727,-12.637500762939453
1770950130139473200,3.56247314453125,-16.14375114440918,-16.70625114440918,-12.375000953674316
1770950130149473300,3.572473388671875,-15.71250057220459,-16.59375,-12.33750057220459
1770950130159473200,3.58247314453125,-15.600000381469727,-16.556251525878906,-12.262500762939453
1770950130169473300,3.592473388671875,-15.412500381469727,-16.481250762939453,-12.075000762939453
1770950130179473200,3.60247314453125,-15.037500381469727,-16.51875114440918,-11.981250762939453
1770950130189473300,3.612473388671875,-14.756250381469727,-16.350000381469727,-11.86875057220459
1770950130199473200,3.62247314453125,-14.756250381469727,-16.537500381469727,-11.77500057220459
1770950130209473300,3.632473388671875,-14.812500953674316,-16.743751525878906,-11.77500057220459
1770950130219473200,3.64247314453125,-14.943750381469727,-16.70625114440918,-11.68125057220459
1770950130229473300,3.652473388671875,-15.24375057220459,-17.025001525878906,-11.71875
1770950130239473200,3.66247314453125,-15.15000057220459,-17.325000762939453,-11.700000762939453
1770950130249473300,3.672473388671875,-15.15000057220459,-17.53125,-11.756250381469727
1770950130259473200,3.68247314453125,-15.093750953674316,-17.83125114440918,-12.168750762939453
1770950130269473300,3.692473388671875,-15.15000057220459,-18.01875114440918,-12.33750057220459
1770950130279473200,3.70247314453125,-15.225000381469727,-18.318750381469727,-12.52500057220459
1770950130289473300,3.712473388671875,-14.925000190734863,-18.337501525878906,-12.61875057220459
1770950130299473200,3.72247314453125,-14.662500381469727,-18.5625,-12.61875057220459
1770950130309473300,3.732473388671875,-14.30625057220459,-18.58125114440918,-12.731250762939453
1770950130319473200,3.74247314453125,-14.193750381469727,-18.712501525878906,-12.975000381469727
1770950130329473300,3.752473388671875,-14.100000381469727,-18.806251525878906,-13.08750057220459
1770950130339473200,3.76247314453125,-14.21250057220459,-18.693750381469727,-12.562500953674316
1770950130349473300,3.772473388671875,-14.268750190734863,-18.9375,-12.450000762939453
1770950130359473200,3.78247314453125,-14.49375057220459,-18.65625,-11.943750381469727
1770950130369473300,3.792473388671875,-14.906250953674316,-18.543750762939453,-11.381250381469727
1770950130379473200,3.80247314453125,-15.168750762939453,-18.525001525878906,-11.081250190734863
1770950130389473300,3.812473388671875,-15.581250190734863,-18.48750114440918,-10.725000381469727
1770950130399473200,3.82247314453125,-15.825000762939453,-18.506250381469727,-10.481250762939453
1770950130409473300,3.832473388671875,-15.787500381469727,-18.412500381469727,-10.03125
1770950130419473200,3.84247314453125,-15.731250762939453,-18.150001525878906,-9.787500381469727
1770950130429473300,3.852473388671875,-15.562500953674316,-17.756250381469727,-9.393750190734863
1770950130439473200,3.86247314453125,-15.43125057220459,-17.793750762939453,-9.61875057220459
1770950130449473300,3.872473388671875,-15.262500762939453,-17.8125,-9.918750762939453
1770950130459473200,3.88247314453125,-15.168750762939453,-17.90625,-10.200000762939453
1770950130469473300,3.892473388671875,-14.943750381469727,-17.868751525878906,-10.08750057220459
1770950130479473200,3.90247314453125,-15.000000953674316,-17.868751525878906,-9.9375
1770950130489473300,3.912473388671875,-15.037500381469727,-17.90625,-9.84375
1770950130499473200,3.92247314453125,-15.187500953674316,-18.056251525878906,-10.143750190734863
1770950130509473300,3.932473388671875,-15.43125057220459,-18.356250762939453,-10.237500190734863
1770950130519473200,3.94247314453125,-15.300000190734863,-18.225000381469727,-9.84375
1770950130529473300,3.952473388671875,-15.393750190734863,-18.20625114440918,-9.75
1770950130539473200,3.96247314453125,-15.393750190734863,-18.30000114440918,-9.637500762939453
1770950130549473300,3.972473388671875,-15.487500190734863,-18.46875,-10.012500762939453
1770950130559473200,3.98247314453125,-15.43125057220459,-18.637500762939453,-10.40625
1770950130569473300,3.992473388671875,-15.206250190734863,-19.05000114440918,-10.912500381469727
1770950130579473200,4.00247314453125,-15.131250381469727,-19.556251525878906,-10.800000190734863
1770950130589473300,4.012473388671875,-15.018750190734863,-19.931251525878906,-10.725000381469727
1770950130599473200,4.02247314453125,-14.86875057220459,-20.306251525878906,-10.93125057220459
1770950130609473300,4.032473388671875,-14.700000762939453,-20.83125114440918,-11.081250190734863
1770950130619473200,4.04247314453125,-14.40000057220459,-21.075000762939453,-11.137500762939453
1770950130629473300,4.052473388671875,-14.418750762939453,-21.225000381469727,-10.65000057220459
1770950130639473200,4.06247314453125,-14.381250381469727,-21.150001525878906,-10.068750381469727
1770950130649473300,4.072473388671875,-14.831250190734863,-21.225000381469727,-9.581250190734863
1770950130659473200,4.08247314453125,-14.737500190734863,-21.168750762939453,-9.168750762939453
1770950130669473300,4.092473388671875,-14.662500381469727,-21.056251525878906,-8.8125
1770950130679473200,4.10247314453125,-14.700000762939453,-20.83125114440918,-8.418750762939453
1770950130689473300,4.112473388671875,-14.606250762939453,-20.756250381469727,-7.837500095367432
1770950130699473200,4.12247314453125,-14.793750762939453,-20.793750762939453,-7.143750190734863
1770950130709473300,4.132473388671875,-14.850000381469727,-21.01875114440918,-6.806250095367432
1770950130719473200,4.14247314453125,-14.718750953674316,-21.337501525878906,-6.450000286102295
1770950130729473300,4.152473388671875,-14.268750190734863,-21.30000114440918,-6.168750286102295
1770950130739473200,4.16247314453125,-14.250000953674316,-21.46875,-6.018750190734863
1770950130749473300,4.172473388671875,-14.287500381469727,-21.731250762939453,-6.206250190734863
1770950130759473200,4.18247314453125,-14.456250190734863,-22.087501525878906,-6.018750190734863
1770950130769473300,4.192473388671875,-14.606250762939453,-22.125,-6.056250095367432
1770950130779473200,4.20247314453125,-14.700000762939453,-22.21875,-6.412500381469727
1770950130789473300,4.212473388671875,-14.49375057220459,-22.125,-6.712500095367432
1770950130799473200,4.22247314453125,-14.40000057220459,-22.012500762939453,-6.900000095367432
1770950130809473300,4.232473388671875,-14.550000190734863,-21.9375,-6.956250190734863
1770950130819473200,4.24247314453125,-14.77500057220459,-21.787500381469727,-7.012500286102295
1770950130829473300,4.252473388671875,-14.86875057220459,-21.67500114440918,-6.937500476837158
1770950130839473200,4.26247314453125,-14.906250953674316,-21.67500114440918,-7.331250190734863
1770950130849473300,4.272473388671875,-14.812500953674316,-21.600000381469727,-7.275000095367432
1770950130859473200,4.28247314453125,-14.756250381469727,-21.337501525878906,-7.218750476837158
1770950130869473300,4.292473388671875,-14.737500190734863,-21.243751525878906,-7.050000190734863
1770950130879473200,4.30247314453125,-14.737500190734863,-21.412500381469727,-7.087500095367432
1770950130889473300,4.312473388671875,-14.68125057220459,-21.48750114440918,-7.106250286102295
1770950130899473200,4.32247314453125,-14.568750381469727,-21.543750762939453,-7.331250190734863
1770950130909473300,4.332473388671875,-14.625000953674316,-21.618751525878906,-7.293750286102295
1770950130919473200,4.34247314453125,-14.625000953674316,-21.65625,-7.575000286102295
1770950130929473300,4.352473388671875,-14.606250762939453,-21.75,-7.837500095367432
1770950130939473200,4.36247314453125,-14.568750381469727,-21.993751525878906,-8.006250381469727
1770950130949473300,4.372473388671875,-14.58750057220459,-21.618751525878906,-8.137500762939453
1770950130959473200,4.38247314453125,-14.737500190734863,-21.337501525878906,-8.381250381469727
1770950130969473300,4.392473388671875,-15.018750190734863,-20.962501525878906,-8.512500762939453
1770950130979473200,4.40247314453125,-15.206250190734863,-20.681251525878906,-8.77500057220459
1770950130989473300,4.412473388671875,-15.187500953674316,-20.400001525878906,-9.075000762939453
1770950130999473200,4.42247314453125,-14.981250762939453,-20.08125114440918,-8.8125
1770950131009473300,4.432473388671875,-14.981250762939453,-19.931251525878906,-9.018750190734863
1770950131019473200,4.44247314453125,-15.300000190734863,-19.78125,-9.43125057220459
1770950131029473300,4.452473388671875,-15.393750190734863,-20.17500114440918,-9.9375
1770950131039473200,4.46247314453125,-15.168750762939453,-20.193750381469727,-10.425000190734863
1770950131049473300,4.472473388671875,-15.300000190734863,-20.100000381469727,-10.74375057220459
1770950131059473200,4.48247314453125,-15.206250190734863,-20.193750381469727,-10.818750381469727
1770950131069473300,4.492473388671875,-15.131250381469727,-20.006250381469727,-10.987500190734863
1770950131079473200,4.50247314453125,-15.15000057220459,-20.006250381469727,-11.268750190734863
1770950131089473300,4.512473388671875,-15.412500381469727,-19.61250114440918,-11.325000762939453
1770950131099473200,4.52247314453125,-15.393750190734863,-19.23750114440918,-11.006250381469727
1770950131109473300,4.532473388671875,-15.581250190734863,-18.825000762939453,-10.912500381469727
1770950131119473200,4.54247314453125,-15.881250381469727,-18.693750381469727,-10.856250762939453
1770950131129473300,4.552473388671875,-15.71250057220459,-18.84375,-10.74375057220459
1770950131139473200,4.56247314453125,-15.750000953674316,-18.806251525878906,-10.74375057220459
1770950131149473300,4.572473388671875,-15.656250953674316,-18.918750762939453,-10.575000762939453
1770950131159473200,4.58247314453125,-15.750000953674316,-18.881250381469727,-10.612500190734863
1770950131169473300,4.592473388671875,-15.393750190734863,-19.068750381469727,-10.425000190734863
1770950131179473200,4.60247314453125,-15.33750057220459,-19.42500114440918,-10.725000381469727
1770950131189473300,4.612473388671875,-15.168750762939453,-19.631250381469727,-10.5
1770950131199473200,4.62247314453125,-15.33750057220459,-19.462501525878906,-10.125
1770950131209473300,4.632473388671875,-14.943750381469727,-19.293750762939453,-10.36875057220459
1770950131219473200,4.64247314453125,-14.700000762939453,-19.275001525878906,-10.200000762939453
1770950131229473300,4.652473388671875,-14.981250762939453,-19.087501525878906,-10.012500762939453
1770950131239473200,4.66247314453125,-15.018750190734863,-19.012500762939453,-10.068750381469727
1770950131249473300,4.672473388671875,-15.318750381469727,-18.900001525878906,-10.143750190734863
1770950131259473200,4.68247314453125,-15.262500762939453,-18.731250762939453,-10.106250762939453
1770950131269473300,4.692473388671875,-15.61875057220459,-18.693750381469727,-10.256250381469727
1770950131279473200,4.70247314453125,-15.300000190734863,-18.84375,-10.36875057220459
1770950131289473300,4.712473388671875,-15.52500057220459,-18.86250114440918,-10.21875
1770950131299473200,4.72247314453125,-15.693750381469727,-18.75,-10.5
1770950131309473300,4.732473388671875,-15.80625057220459,-18.825000762939453,-10.912500381469727
1770950131319473200,4.74247314453125,-15.731250762939453,-19.03125,-11.231250762939453
1770950131329473300,4.752473388671875,-15.750000953674316,-19.23750114440918,-11.325000762939453
1770950131339473200,4.76247314453125,-15.693750381469727,-19.256250381469727,-11.193750381469727
1770950131349473300,4.772473388671875,-15.562500953674316,-19.162500381469727,-11.081250190734863
1770950131359473200,4.78247314453125,-15.825000762939453,-19.162500381469727,-11.100000381469727
1770950131369473300,4.792473388671875,-15.918750762939453,-19.14375114440918,-11.006250381469727
1770950131379473200,4.80247314453125,-15.80625057220459,-19.181251525878906,-10.893750190734863
1770950131389473300,4.812473388671875,-15.43125057220459,-19.068750381469727,-10.612500190734863
1770950131399473200,4.82247314453125,-15.375000953674316,-19.14375114440918,-10.012500762939453
1770950131409473300,4.832473388671875,-15.281250953674316,-18.993751525878906,-10.012500762939453
1770950131419473200,4.84247314453125,-15.075000762939453,-18.918750762939453,-9.787500381469727
1770950131429473300,4.852473388671875,-14.943750381469727,-18.86250114440918,-9.693750381469727
1770950131439473200,4.86247314453125,-14.906250953674316,-18.76875114440918,-9.33750057220459
1770950131449473300,4.872473388671875,-15.000000953674316,-18.86250114440918,-9.43125057220459
1770950131459473200,4.88247314453125,-15.206250190734863,-18.9375,-9.075000762939453
1770950131469473300,4.892473388671875,-15.131250381469727,-19.05000114440918,-9.412500381469727
1770950131479473200,4.90247314453125,-15.412500381469727,-18.86250114440918,-9.90000057220459
1770950131489473300,4.912473388671875,-15.43125057220459,-18.65625,-10.162500381469727
1770950131499473200,4.92247314453125,-15.80625057220459,-18.28125,-10.387500762939453
1770950131509473300,4.932473388671875,-15.937500953674316,-18.168750762939453,-10.443750381469727
1770950131519473200,4.94247314453125,-15.956250190734863,-17.981250762939453,-10.65000057220459
1770950131529473300,4.952473388671875,-16.275001525878906,-17.64375114440918,-10.256250381469727
1770950131539473200,4.96247314453125,-16.537500381469727,-17.137500762939453,-10.331250190734863
1770950131549473300,4.972473388671875,-17.100000381469727,-16.818750381469727,-10.050000190734863
1770950131559473200,4.98247314453125,-17.137500762939453,-16.293750762939453,-9.450000762939453
1770950131569473300,4.992473388671875,-17.36250114440918,-16.21875,-8.86875057220459
1770950131579473200,5.00247314453125,-17.71875,-16.14375114440918,-8.737500190734863
1770950131589473300,5.012473388671875,-17.64375114440918,-15.825000762939453,-8.71875
1770950131599473200,5.02247314453125,-17.83125114440918,-15.543750762939453,-8.606250762939453
1770950131609473300,5.032473388671875,-17.90625,-15.562500953674316,-8.793750762939453
1770950131619473200,5.04247314453125,-18,-15.656250953674316,-8.86875057220459
1770950131629473300,5.052473388671875,-17.775001525878906,-15.487500190734863,-8.887500762939453
1770950131639473200,5.06247314453125,-17.756250381469727,-15.52500057220459,-8.96250057220459
1770950131649473300,5.072473388671875,-17.73750114440918,-15.487500190734863,-9.300000190734863
1770950131659473200,5.08247314453125,-17.193750381469727,-15.71250057220459,-9.46875
1770950131669473300,5.092473388671875,-17.15625,-15.956250190734863,-9.637500762939453
1770950131679473200,5.10247314453125,-17.100000381469727,-16.125,-9.75
1770950131689473300,5.112473388671875,-16.61250114440918,-16.275001525878906,-9.881250381469727
1770950131699473200,5.12247314453125,-16.42500114440918,-16.275001525878906,-9.825000762939453
1770950131709473300,5.132473388671875,-16.51875114440918,-16.51875114440918,-9.956250190734863
1770950131719473200,5.14247314453125,-16.368751525878906,-16.875,-10.200000762939453
1770950131729473300,5.152473388671875,-16.443750381469727,-17.08125114440918,-10.106250762939453
1770950131739473200,5.16247314453125,-16.443750381469727,-17.025001525878906,-10.050000190734863
1770950131749473300,5.172473388671875,-16.650001525878906,-16.912500381469727,-9.506250381469727
1770950131759473200,5.18247314453125,-16.6875,-17.100000381469727,-9.262500762939453
1770950131769473300,5.192473388671875,-16.96875,-17.006250381469727,-9.037500381469727
1770950131779473200,5.20247314453125,-16.875,-17.043750762939453,-8.925000190734863
1770950131789473300,5.212473388671875,-16.78125,-16.912500381469727,-8.550000190734863
1770950131799473200,5.22247314453125,-16.668750762939453,-16.631250381469727,-8.456250190734863
1770950131809473300,5.232473388671875,-16.537500381469727,-16.275001525878906,-8.381250381469727
1770950131819473200,5.24247314453125,-16.575000762939453,-16.05000114440918,-8.21250057220459
1770950131829473300,5.252473388671875,-16.462501525878906,-16.23750114440918,-8.662500381469727
1770950131839473200,5.26247314453125,-16.59375,-15.825000762939453,-8.77500057220459
1770950131849473300,5.272473388671875,-16.462501525878906,-15.61875057220459,-8.887500762939453
1770950131859473200,5.28247314453125,-16.837501525878906,-15.487500190734863,-8.793750762939453
1770950131869473300,5.292473388671875,-16.931251525878906,-15.300000190734863,-9.1875
1770950131879473200,5.30247314453125,-17.4375,-15.225000381469727,-8.90625
1770950131889473300,5.312473388671875,-17.625,-14.96250057220459,-8.71875
1770950131899473200,5.32247314453125,-18.11250114440918,-14.68125057220459,-8.625
1770950131909473300,5.332473388671875,-18.11250114440918,-13.987500190734863,-8.53125
1770950131919473200,5.34247314453125,-17.887500762939453,-13.818750381469727,-9.018750190734863
1770950131929473300,5.352473388671875,-18.131250381469727,-13.800000190734863,-9.487500190734863
1770950131939473200,5.36247314453125,-17.92500114440918,-13.65000057220459,-9.75
1770950131949473300,5.372473388671875,-18.075000762939453,-13.425000190734863,-9.675000190734863
1770950131959473200,5.38247314453125,-18.037500381469727,-13.162500381469727,-9.975000381469727
1770950131969473300,5.392473388671875,-18.20625114440918,-13.106250762939453,-9.975000381469727
1770950131979473200,5.40247314453125,-18.30000114440918,-13.068750381469727,-10.21875
1770950131989473300,5.412473388671875,-18.39375114440918,-13.162500381469727,-10.21875
1770950131999473200,5.42247314453125,-18.5625,-12.975000381469727,-9.787500381469727
1770950132009473300,5.432473388671875,-18.693750381469727,-12.562500953674316,-9.450000762939453
1770950132019473200,5.44247314453125,-18.65625,-12.43125057220459,-9.75
1770950132039473200,5.46247314453125,-18.825000762939453,-11.981250762939453,-10.5
1770950132049473300,5.472473388671875,-18.95625114440918,-11.737500190734863,-10.875
1770950132059473200,5.48247314453125,-19.012500762939453,-11.34375,-10.6875
1770950132069473300,5.492473388671875,-19.3125,-11.081250190734863,-10.875
1770950132079473200,5.50247314453125,-19.51875114440918,-10.74375057220459,-10.987500190734863
1770950132089473300,5.512473388671875,-19.40625,-10.425000190734863,-10.78125
1770950132099473200,5.52247314453125,-19.818750381469727,-10.08750057220459,-10.331250190734863
1770950132109473300,5.532473388671875,-20.36250114440918,-9.71250057220459,-9.52500057220459
1770950132119473200,5.54247314453125,-20.418750762939453,-9.225000381469727,-8.793750762939453
1770950132129473300,5.552473388671875,-20.625,-9.075000762939453,-8.40000057220459
1770950132139473200,5.56247314453125,-20.700000762939453,-8.850000381469727,-8.268750190734863
1770950132149473300,5.572473388671875,-20.887500762939453,-8.568750381469727,-7.950000286102295
1770950132159473200,5.58247314453125,-20.943750381469727,-8.287500381469727,-7.818750381469727
1770950132169473300,5.592473388671875,-21.356250762939453,-7.968750476837158,-7.687500476837158
1770950132179473200,5.60247314453125,-21.243751525878906,-7.500000476837158,-7.987500190734863
1770950132189473300,5.612473388671875,-21.318750381469727,-7.593750476837158,-8.737500190734863
1770950132199473200,5.62247314453125,-21.337501525878906,-7.500000476837158,-9.05625057220459
1770950132209473300,5.632473388671875,-21.01875114440918,-7.425000190734863,-9.393750190734863
1770950132219473200,5.64247314453125,-20.962501525878906,-7.218750476837158,-9.675000190734863
1770950132229473300,5.652473388671875,-20.887500762939453,-7.162500381469727,-10.256250381469727
1770950132239473200,5.66247314453125,-20.92500114440918,-7.443750381469727,-10.762500762939453
1770950132249473300,5.672473388671875,-20.625,-7.612500190734863,-11.86875057220459
1770950132259473200,5.68247314453125,-20.568750381469727,-7.612500190734863,-12.71250057220459
1770950132269473300,5.692473388671875,-19.875,-7.706250190734863,-13.36875057220459
1770950132279473200,5.70247314453125,-19.23750114440918,-7.837500095367432,-14.756250381469727
1770950132289473300,5.712473388671875,-18.712501525878906,-7.931250095367432,-16.350000381469727
1770950132299473200,5.72247314453125,-18.318750381469727,-8.4375,-17.775001525878906
1770950132309473300,5.732473388671875,-17.625,-8.68125057220459,-19.012500762939453
1770950132319473200,5.74247314453125,-17.006250381469727,-8.550000190734863,-20.26875114440918
1770950132329473300,5.752473388671875,-16.668750762939453,-8.49375057220459,-20.90625
1770950132339473200,5.76247314453125,-16.575000762939453,-8.662500381469727,-21.243751525878906
1770950132349473300,5.772473388671875,-16.5,-8.568750381469727,-21.637500762939453
1770950132359473200,5.78247314453125,-16.6875,-8.625,-21.731250762939453
1770950132369473300,5.792473388671875,-16.350000381469727,-8.643750190734863,-21.600000381469727
1770950132379473200,5.80247314453125,-16.14375114440918,-8.30625057220459,-21.48750114440918
1770950132389473300,5.812473388671875,-16.443750381469727,-8.21250057220459,-21.11250114440918
1770950132399473200,5.82247314453125,-16.762500762939453,-8.287500381469727,-20.287500381469727
1770950132409473300,5.832473388671875,-17.006250381469727,-8.21250057220459,-19.856250762939453
1770950132419473200,5.84247314453125,-16.875,-8.268750190734863,-19.668750762939453
1770950132429473300,5.852473388671875,-16.96875,-8.25,-19.51875114440918
1770950132439473200,5.86247314453125,-17.043750762939453,-8.418750762939453,-18.46875
1770950132449473300,5.872473388671875,-18,-8.231250762939453,-16.98750114440918
1770950132459473200,5.88247314453125,-18.5625,-8.25,-15.600000381469727
1770950132469473300,5.892473388671875,-18.84375,-8.11875057220459,-14.343750953674316
1770950132479473200,5.90247314453125,-18.993751525878906,-7.950000286102295,-13.387500762939453
1770950132489473300,5.912473388671875,-18.900001525878906,-8.081250190734863,-12.71250057220459
1770950132499473200,5.92247314453125,-18.975000381469727,-8.043750762939453,-12.018750190734863
1770950132509473300,5.932473388671875,-19.162500381469727,-8.325000762939453,-10.893750190734863
1770950132519473200,5.94247314453125,-19.162500381469727,-7.950000286102295,-10.6875
1770950132529473300,5.952473388671875,-18.76875114440918,-8.175000190734863,-10.987500190734863
1770950132539473200,5.96247314453125,-18.39375114440918,-8.475000381469727,-11.4375
1770950132549473300,5.972473388671875,-18.20625114440918,-8.568750381469727,-11.737500190734863
1770950132559473200,5.98247314453125,-17.90625,-9.037500381469727,-12.225000381469727
1770950132569473300,5.992473388671875,-17.8125,-9.168750762939453,-12.018750190734863
1770950132579473200,6.00247314453125,-17.587501525878906,-9.375,-12.24375057220459
1770950132589473300,6.012473388671875,-17.512500762939453,-9.412500381469727,-12.600000381469727
1770950132599473200,6.02247314453125,-17.55000114440918,-9.506250381469727,-12.543750762939453
1770950132609473300,6.032473388671875,-17.662500381469727,-9.600000381469727,-12.61875057220459
1770950132619473200,6.04247314453125,-17.662500381469727,-9.600000381469727,-12.61875057220459
1770950132629473300,6.052473388671875,-17.681251525878906,-9.731250762939453,-12.656250953674316
1770950132639473200,6.06247314453125,-17.793750762939453,-9.75,-12.33750057220459
1770950132649473300,6.072473388671875,-17.962501525878906,-9.918750762939453,-12.33750057220459
1770950132659473200,6.08247314453125,-18.39375114440918,-10.050000190734863,-11.793750762939453
1770950132669473300,6.092473388671875,-18.65625,-9.99375057220459,-11.418750762939453
1770950132679473200,6.10247314453125,-18.618751525878906,-10.55625057220459,-11.49375057220459
1770950132689473300,6.112473388671875,-18.65625,-10.725000381469727,-11.268750190734863
1770950132699473200,6.12247314453125,-18.618751525878906,-10.950000762939453,-11.268750190734863
1770950132709473300,6.132473388671875,-18.806251525878906,-11.21250057220459,-10.987500190734863
1770950132719473200,6.14247314453125,-18.806251525878906,-11.30625057220459,-10.950000762939453
1770950132729473300,6.152473388671875,-18.693750381469727,-11.475000381469727,-11.137500762939453
1770950132739473200,6.16247314453125,-18.1875,-11.606250762939453,-11.4375
1770950132749473300,6.172473388671875,-17.775001525878906,-11.887500762939453,-11.700000762939453
1770950132759473200,6.18247314453125,-17.793750762939453,-12.037500381469727,-11.793750762939453
1770950132769473300,6.192473388671875,-17.850000381469727,-12.037500381469727,-11.737500190734863
1770950132779473200,6.20247314453125,-17.90625,-12.093750953674316,-11.568750381469727
1770950132789473300,6.212473388671875,-17.700000762939453,-12.318750381469727,-11.49375057220459
1770950132799473200,6.22247314453125,-17.700000762939453,-12.43125057220459,-11.325000762939453
1770950132809473300,6.232473388671875,-17.943750381469727,-12.656250953674316,-11.043750762939453
1770950132819473200,6.24247314453125,-18.225000381469727,-12.881250381469727,-10.78125
1770950132829473300,6.252473388671875,-18.262500762939453,-13.031250953674316,-10.83750057220459
1770950132839473200,6.26247314453125,-17.962501525878906,-12.99375057220459,-10.59375
1770950132849473300,6.272473388671875,-17.887500762939453,-13.143750190734863,-10.59375
1770950132859473200,6.28247314453125,-17.700000762939453,-12.937500953674316,-10.83750057220459
1770950132869473300,6.292473388671875,-17.493751525878906,-12.918750762939453,-11.137500762939453
1770950132879473200,6.30247314453125,-16.931251525878906,-12.956250190734863,-11.568750381469727
1770950132889473300,6.312473388671875,-16.481250762939453,-12.787500381469727,-11.606250762939453
1770950132899473200,6.32247314453125,-16.59375,-12.600000381469727,-11.53125
1770950132909473300,6.332473388671875,-16.61250114440918,-12.581250190734863,-11.30625057220459
1770950132919473200,6.34247314453125,-16.80000114440918,-12.318750381469727,-11.0625
1770950132929473300,6.352473388671875,-16.856250762939453,-12.300000190734863,-11.006250381469727
1770950132939473200,6.36247314453125,-17.17500114440918,-12.52500057220459,-10.5
1770950132949473300,6.372473388671875,-17.45625114440918,-12.412500381469727,-10.331250190734863
1770950132959473200,6.38247314453125,-18.30000114440918,-12.375000953674316,-9.956250190734863
1770950132969473300,6.392473388671875,-18.618751525878906,-12.393750190734863,-9.881250381469727
1770950132979473200,6.40247314453125,-18.58125114440918,-12.300000190734863,-9.881250381469727
1770950132989473300,6.412473388671875,-18.450000762939453,-12.112500190734863,-9.975000381469727
1770950132999473200,6.42247314453125,-18.787500381469727,-12.093750953674316,-10.18125057220459
1770950133009473300,6.432473388671875,-18.731250762939453,-11.850000381469727,-9.9375
1770950133019473200,6.44247314453125,-18.337501525878906,-11.625,-9.956250190734863
1770950133029473300,6.452473388671875,-18.30000114440918,-11.381250381469727,-10.21875
1770950133039473200,6.46247314453125,-18.150001525878906,-11.418750762939453,-10.83750057220459
1770950133049473300,6.472473388671875,-18.037500381469727,-11.34375,-11.662500381469727
1770950133059473200,6.48247314453125,-17.756250381469727,-11.193750381469727,-12.318750381469727
1770950133069473300,6.492473388671875,-18.075000762939453,-10.725000381469727,-12.33750057220459
1770950133089473300,6.512473388671875,-18.225000381469727,-10.21875,-12.750000953674316
1770950133099473200,6.52247314453125,-18.600000381469727,-9.99375057220459,-12.787500381469727
1770950133109473300,6.532473388671875,-18.881250381469727,-9.71250057220459,-12.187500953674316
1770950133119473200,6.54247314453125,-18.86250114440918,-9.15000057220459,-11.475000381469727
1770950133129473300,6.552473388671875,-19.106250762939453,-8.756250381469727,-10.3125
1770950133139473200,6.56247314453125,-19.6875,-8.643750190734863,-9.24375057220459
1770950133149473300,6.572473388671875,-20.043750762939453,-8.86875057220459,-9.018750190734863
1770950133159473200,6.58247314453125,-20.15625,-8.625,-8.418750762939453
1770950133169473300,6.592473388671875,-20.25,-8.8125,-8.006250381469727
1770950133179473200,6.60247314453125,-20.45625114440918,-8.831250190734863,-7.556250095367432
1770950133189473300,6.612473388671875,-20.381250381469727,-8.925000190734863,-7.593750476837158
1770950133199473200,6.62247314453125,-20.8125,-9.05625057220459,-7.181250095367432
1770950133209473300,6.632473388671875,-21,-9.09375,-7.143750190734863
1770950133219473200,6.64247314453125,-20.962501525878906,-9.15000057220459,-7.256250381469727
1770950133229473300,6.652473388671875,-20.73750114440918,-9.112500190734863,-6.881250381469727
1770950133239473200,6.66247314453125,-20.662500381469727,-9.300000190734863,-6.750000476837158
1770950133249473300,6.672473388671875,-20.53125,-9.318750381469727,-6.431250095367432
1770950133259473200,6.68247314453125,-20.775001525878906,-9.300000190734863,-6.506250381469727
1770950133269473300,6.692473388671875,-20.756250381469727,-9.506250381469727,-6.450000286102295
1770950133279473200,6.70247314453125,-20.4375,-9.600000381469727,-6.881250381469727
1770950133289473300,6.712473388671875,-20.34375,-10.106250762939453,-7.050000190734863
1770950133299473200,6.72247314453125,-20.118751525878906,-10.106250762939453,-6.918750286102295
1770950133309473300,6.732473388671875,-20.08125114440918,-10.200000762939453,-7.087500095367432
1770950133319473200,6.74247314453125,-20.137500762939453,-10.425000190734863,-7.406250476837158
1770950133329473300,6.752473388671875,-19.912500381469727,-10.46250057220459,-8.0625
1770950133339473200,6.76247314453125,-19.200000762939453,-10.875,-8.77500057220459
1770950133349473300,6.772473388671875,-19.012500762939453,-11.25,-9.46875
1770950133359473200,6.78247314453125,-18.637500762939453,-11.30625057220459,-10.36875057220459
1770950133369473300,6.792473388671875,-17.92500114440918,-11.15625,-10.93125057220459
1770950133379473200,6.80247314453125,-17.8125,-11.34375,-11.456250190734863
1770950133389473300,6.812473388671875,-17.73750114440918,-11.268750190734863,-11.456250190734863
1770950133399473200,6.82247314453125,-17.55000114440918,-11.081250190734863,-11.550000190734863
1770950133409473300,6.832473388671875,-17.793750762939453,-10.950000762939453,-11.21250057220459
1770950133419473200,6.84247314453125,-18.075000762939453,-10.6875,-10.818750381469727
1770950133429473300,6.852473388671875,-18.11250114440918,-10.125,-10.18125057220459
1770950133439473200,6.86247314453125,-18.337501525878906,-10.012500762939453,-9.09375
1770950133449473300,6.872473388671875,-18.918750762939453,-9.46875,-8.287500381469727
1770950133459473200,6.88247314453125,-19.40625,-9.09375,-7.743750095367432
1770950133469473300,6.892473388671875,-19.650001525878906,-8.793750762939453,-7.593750476837158
1770950133479473200,6.90247314453125,-19.950000762939453,-8.625,-7.125000476837158
1770950133489473300,6.912473388671875,-20.043750762939453,-8.40000057220459,-6.900000095367432
1770950133499473200,6.92247314453125,-20.55000114440918,-8.175000190734863,-6.637500286102295
1770950133509473300,6.932473388671875,-20.71875,-7.950000286102295,-6.656250476837158
1770950133519473200,6.94247314453125,-20.981250762939453,-7.518750190734863,-6.656250476837158
1770950133529473300,6.952473388671875,-21.1875,-7.443750381469727,-6.750000476837158
1770950133539473200,6.96247314453125,-21.20625114440918,-7.125000476837158,-6.675000190734863
1770950133549473300,6.972473388671875,-21.20625114440918,-6.993750095367432,-6.825000286102295
1770950133559473200,6.98247314453125,-21.01875114440918,-6.806250095367432,-6.750000476837158
1770950133569473300,6.992473388671875,-21.09375,-6.712500095367432,-6.768750190734863
1770950133579473200,7.00247314453125,-21.037500381469727,-6.581250190734863,-6.637500286102295
1770950133589473300,7.012473388671875,-21.20625114440918,-6.412500381469727,-6.468750476837158
1770950133599473200,7.02247314453125,-21.506250381469727,-6.393750190734863,-6.206250190734863
1770950133609473300,7.032473388671875,-21.46875,-6.337500095367432,-6.056250095367432
1770950133619473200,7.04247314453125,-21.30000114440918,-6.750000476837158,-6.243750095367432
1770950133629473300,7.052473388671875,-21.11250114440918,-6.731250286102295,-6.168750286102295
1770950133639473200,7.06247314453125,-21.225000381469727,-6.937500476837158,-6.900000095367432
1770950133649473300,7.072473388671875,-21.1875,-7.275000095367432,-7.462500095367432
1770950133659473200,7.08247314453125,-20.92500114440918,-7.631250381469727,-7.912500381469727
1770950133669473300,7.092473388671875,-20.493751525878906,-8.0625,-8.30625057220459
1770950133679473200,7.10247314453125,-20.15625,-8.475000381469727,-8.737500190734863
1770950133689473300,7.112473388671875,-19.875,-9.018750190734863,-9.075000762939453
1770950133699473200,7.12247314453125,-19.80000114440918,-9.037500381469727,-8.90625
1770950133709473300,7.132473388671875,-19.481250762939453,-9.675000190734863,-8.887500762939453
1770950133719473200,7.14247314453125,-19.293750762939453,-9.862500190734863,-8.40000057220459
1770950133729473300,7.152473388671875,-18.67500114440918,-10.125,-8.21250057220459
1770950133739473200,7.16247314453125,-18.506250381469727,-10.125,-8.0625
1770950133749473300,7.172473388671875,-18.637500762939453,-10.3125,-7.856250286102295
1770950133759473200,7.18247314453125,-18.356250762939453,-10.65000057220459,-8.006250381469727
1770950133769473300,7.192473388671875,-18.39375114440918,-10.78125,-7.968750476837158
1770950133779473200,7.20247314453125,-18.225000381469727,-11.137500762939453,-8.362500190734863
1770950133789473300,7.212473388671875,-18.30000114440918,-11.137500762939453,-8.53125
1770950133799473200,7.22247314453125,-18.037500381469727,-11.287500381469727,-8.53125
1770950133809473300,7.232473388671875,-18.431251525878906,-11.381250381469727,-8.325000762939453
1770950133819473200,7.24247314453125,-18.67500114440918,-11.58750057220459,-8.137500762939453
1770950133829473300,7.252473388671875,-18.95625114440918,-11.71875,-7.818750381469727
1770950133839473200,7.26247314453125,-19.106250762939453,-11.68125057220459,-7.668750286102295
1770950133849473300,7.272473388671875,-19.03125,-12.018750190734863,-7.743750095367432
1770950133859473200,7.28247314453125,-18.9375,-12.05625057220459,-7.481250286102295
1770950133869473300,7.292473388671875,-19.162500381469727,-12.037500381469727,-7.387500286102295
1770950133879473200,7.30247314453125,-19.387500762939453,-11.850000381469727,-7.200000286102295
1770950133889473300,7.312473388671875,-19.40625,-11.737500190734863,-7.106250286102295
1770950133899473200,7.32247314453125,-19.106250762939453,-11.68125057220459,-7.031250476837158
1770950133909473300,7.332473388671875,-18.65625,-11.475000381469727,-7.331250190734863
1770950133919473200,7.34247314453125,-18.543750762939453,-11.287500381469727,-7.031250476837158
1770950133929473300,7.352473388671875,-18.637500762939453,-10.725000381469727,-6.656250476837158
1770950133939473200,7.36247314453125,-18.693750381469727,-10.575000762939453,-6.618750095367432
1770950133949473300,7.372473388671875,-18.58125114440918,-10.6875,-6.431250095367432
1770950133959473200,7.38247314453125,-18.67500114440918,-10.987500190734863,-6.618750095367432
1770950133969473300,7.392473388671875,-18.39375114440918,-11.325000762939453,-6.956250190734863
1770950133979473200,7.40247314453125,-18.431251525878906,-11.325000762939453,-7.050000190734863
1770950133989473300,7.412473388671875,-18.58125114440918,-11.68125057220459,-7.031250476837158
1770950133999473200,7.42247314453125,-18.525001525878906,-11.756250381469727,-7.406250476837158
1770950134009473300,7.432473388671875,-18.39375114440918,-12.112500190734863,-8.006250381469727
1770950134019473200,7.44247314453125,-18.09375,-12.24375057220459,-8.68125057220459
1770950134029473300,7.452473388671875,-17.8125,-12.300000190734863,-9.506250381469727
1770950134039473200,7.46247314453125,-17.34375,-12.187500953674316,-9.956250190734863
1770950134049473300,7.472473388671875,-16.912500381469727,-11.981250762939453,-10.59375
1770950134059473200,7.48247314453125,-16.96875,-12.037500381469727,-11.34375
1770950134069473300,7.492473388671875,-16.89375114440918,-11.71875,-11.8125
1770950134079473200,7.50247314453125,-16.875,-11.77500057220459,-11.981250762939453
1770950134089473300,7.512473388671875,-16.650001525878906,-11.77500057220459,-12.093750953674316
1770950134099473200,7.52247314453125,-16.743751525878906,-11.756250381469727,-11.850000381469727
1770950134109473300,7.532473388671875,-16.80000114440918,-11.643750190734863,-11.550000190734863
1770950134119473200,7.54247314453125,-16.950000762939453,-11.700000762939453,-11.512500762939453
1770950134129473300,7.552473388671875,-17.137500762939453,-11.737500190734863,-11.02500057220459
1770950134139473200,7.56247314453125,-16.856250762939453,-11.71875,-10.481250762939453
1770950134149473300,7.572473388671875,-16.743751525878906,-11.71875,-10.3125
1770950134159473200,7.58247314453125,-16.443750381469727,-11.925000190734863,-10.55625057220459
1770950134169473300,7.592473388671875,-16.387500762939453,-11.68125057220459,-10.59375
1770950134179473200,7.60247314453125,-16.256250381469727,-11.68125057220459,-10.74375057220459
1770950134189473300,7.612473388671875,-16.181251525878906,-11.512500762939453,-10.74375057220459
1770950134199473200,7.62247314453125,-15.975000381469727,-11.268750190734863,-10.668750762939453
1770950134209473300,7.632473388671875,-16.14375114440918,-10.875,-10.83750057220459
1770950134219473200,7.64247314453125,-16.125,-10.537500381469727,-11.137500762939453
1770950134229473300,7.652473388671875,-16.106250762939453,-10.162500381469727,-11.287500381469727
1770950134239473200,7.66247314453125,-16.162500381469727,-9.675000190734863,-11.193750381469727
1770950134249473300,7.672473388671875,-16.106250762939453,-9.318750381469727,-11.175000190734863
1770950134259473200,7.68247314453125,-16.42500114440918,-8.8125,-11.193750381469727
1770950134269473300,7.692473388671875,-16.556251525878906,-8.40000057220459,-11.15625
1770950134279473200,7.70247314453125,-16.818750381469727,-7.875000476837158,-11.137500762939453
1770950134289473300,7.712473388671875,-16.856250762939453,-7.687500476837158,-11.02500057220459
1770950134299473200,7.72247314453125,-17.0625,-7.462500095367432,-11.081250190734863
1770950134309473300,7.732473388671875,-17.34375,-7.125000476837158,-10.875
1770950134319473200,7.74247314453125,-17.36250114440918,-6.806250095367432,-10.631250381469727
1770950134329473300,7.752473388671875,-17.981250762939453,-6.543750286102295,-10.293750762939453
1770950134339473200,7.76247314453125,-18.318750381469727,-6.262500286102295,-10.08750057220459
1770950134349473300,7.772473388671875,-18.806251525878906,-5.943750381469727,-9.825000762939453
1770950134359473200,7.78247314453125,-19.125,-5.512500286102295,-9.43125057220459
1770950134369473300,7.792473388671875,-19.51875114440918,-5.100000381469727,-9.05625057220459
1770950134379473200,7.80247314453125,-19.743751525878906,-4.743750095367432,-8.86875057220459
1770950134389473300,7.812473388671875,-20.025001525878906,-4.275000095367432,-8.68125057220459
1770950134399473200,7.82247314453125,-20.381250381469727,-3.543750047683716,-8.231250762939453
1770950134409473300,7.832473388671875,-20.26875114440918,-3.1125001907348633,-8.30625057220459
1770950134419473200,7.84247314453125,-20.15625,-2.606250047683716,-8.11875057220459
1770950134429473300,7.852473388671875,-19.96875,-2.2125000953674316,-7.743750095367432
1770950134439473200,7.86247314453125,-20.025001525878906,-2.0812501907348633,-7.875000476837158
1770950134449473300,7.872473388671875,-20.26875114440918,-1.8375000953674316,-7.875000476837158
1770950134459473200,7.88247314453125,-20.681251525878906,-1.3875000476837158,-7.368750095367432
1770950134469473300,7.892473388671875,-20.587501525878906,-1.2000000476837158,-7.125000476837158
1770950134479473200,7.90247314453125,-21.037500381469727,-0.9750000238418579,-7.143750190734863
1770950134489473300,7.912473388671875,-21.262500762939453,-0.5625,-6.862500190734863
1770950134499473200,7.92247314453125,-21.506250381469727,-0.5250000357627869,-6.787500381469727
1770950134509473300,7.932473388671875,-21.58125114440918,-0.26250001788139343,-6.825000286102295
1770950134519473200,7.94247314453125,-21.65625,-0.13125000894069672,-6.787500381469727
1770950134529473300,7.952473388671875,-21.450000762939453,-0.13125000894069672,-6.806250095367432
1770950134539473200,7.96247314453125,-21.11250114440918,-0.26250001788139343,-7.443750381469727
1770950134549473300,7.972473388671875,-21.037500381469727,-0.16875000298023224,-7.631250381469727
1770950134559473200,7.98247314453125,-20.793750762939453,-0.3375000059604645,-8.081250190734863
1770950134569473300,7.992473388671875,-20.83125114440918,-0.6937500238418579,-8.643750190734863
1770950134579473200,8.00247314453125,-20.71875,-0.8250000476837158,-9.131250381469727
1770950134589473300,8.012473388671875,-21.037500381469727,-1.1437500715255737,-9.71250057220459
1770950134599473200,8.02247314453125,-21.037500381469727,-1.162500023841858,-10.08750057220459
1770950134609473300,8.032473388671875,-21.262500762939453,-1.2000000476837158,-10.387500762939453
1770950134619473200,8.04247314453125,-21.150001525878906,-1.256250023841858,-10.331250190734863
1770950134629473300,8.052473388671874,-21.11250114440918,-1.631250023841858,-10.5
1770950134639473200,8.06247314453125,-20.92500114440918,-1.7812501192092896,-10.443750381469727
1770950134649473300,8.072473388671876,-20.962501525878906,-1.912500023841858,-10.143750190734863
1770950134659473200,8.08247314453125,-20.73750114440918,-2.2687501907348633,-9.975000381469727
1770950134669473300,8.092473388671875,-20.55000114440918,-2.5687501430511475,-9.862500190734863
1770950134679473200,8.10247314453125,-20.512500762939453,-2.8500001430511475,-9.918750762939453
1770950134689473300,8.112473388671875,-20.26875114440918,-3.168750047683716,-9.71250057220459
1770950134699473200,8.12247314453125,-20.25,-3.4125001430511475,-9.450000762939453
1770950134709473300,8.132473388671874,-20.36250114440918,-3.750000238418579,-9.28125
1770950134719473200,8.14247314453125,-20.306251525878906,-4.275000095367432,-9.037500381469727
1770950134729473300,8.152473388671876,-20.15625,-4.725000381469727,-9.15000057220459
1770950134739473200,8.16247314453125,-20.0625,-4.725000381469727,-8.96250057220459
1770950134749473300,8.172473388671875,-19.837501525878906,-4.78125,-9.33750057220459
1770950134759473200,8.18247314453125,-19.481250762939453,-4.818750381469727,-8.925000190734863
1770950134769473300,8.192473388671875,-19.350000381469727,-4.631250381469727,-8.68125057220459
1770950134779473200,8.20247314453125,-19.275001525878906,-4.650000095367432,-8.756250381469727
1770950134789473300,8.212473388671874,-19.012500762939453,-4.575000286102295,-8.756250381469727
1770950134799473200,8.22247314453125,-18.975000381469727,-4.368750095367432,-8.456250190734863
1770950134809473300,8.232473388671876,-18.825000762939453,-4.143750190734863,-8.11875057220459
1770950134819473200,8.24247314453125,-18.618751525878906,-4.181250095367432,-8.268750190734863
1770950134829473300,8.252473388671875,-18.543750762939453,-4.275000095367432,-7.800000190734863
1770950134839473200,8.26247314453125,-18.543750762939453,-4.575000286102295,-7.837500095367432
1770950134849473300,8.272473388671875,-18.375,-4.950000286102295,-8.100000381469727
1770950134859473200,8.28247314453125,-18.09375,-5.006250381469727,-8.15625
1770950134869473300,8.292473388671874,-17.90625,-5.15625,-8.456250190734863
1770950134879473200,8.30247314453125,-18.09375,-5.325000286102295,-8.831250190734863
1770950134889473300,8.312473388671876,-17.962501525878906,-5.512500286102295,-9.09375
1770950134899473200,8.32247314453125,-18.5625,-5.400000095367432,-8.512500762939453
1770950134909473300,8.332473388671875,-18.731250762939453,-5.287500381469727,-8.081250190734863
1770950134919473200,8.34247314453125,-19.21875,-5.025000095367432,-7.875000476837158
1770950134929473300,8.352473388671875,-19.59375,-4.762500286102295,-7.462500095367432
1770950134939473200,8.36247314453125,-20.17500114440918,-4.556250095367432,-6.862500190734863
1770950134949473300,8.372473388671875,-20.493751525878906,-4.368750095367432,-6.056250095367432
1770950134959473200,8.38247314453125,-20.493751525878906,-4.181250095367432,-5.793750286102295
1770950134969473300,8.392473388671876,-20.71875,-3.8812501430511475,-5.287500381469727
1770950134979473200,8.40247314453125,-20.681251525878906,-4.012500286102295,-5.381250381469727
1770950134989473300,8.412473388671875,-20.493751525878906,-4.012500286102295,-5.381250381469727
1770950134999473200,8.42247314453125,-20.55000114440918,-4.21875,-5.118750095367432
1770950135009473300,8.432473388671875,-20.662500381469727,-4.3125,-4.987500190734863
1770950135019473200,8.44247314453125,-20.681251525878906,-4.706250190734863,-5.4375
1770950135029473300,8.452473388671875,-20.325000762939453,-4.912500381469727,-6.131250381469727
1770950135039473200,8.46247314453125,-20.137500762939453,-5.268750190734863,-6.543750286102295
1770950135049473300,8.472473388671874,-20.025001525878906,-5.681250095367432,-7.668750286102295
1770950135059473200,8.48247314453125,-19.818750381469727,-5.887500286102295,-8.475000381469727
1770950135069473300,8.492473388671876,-19.725000381469727,-6.356250286102295,-9.24375057220459
1770950135079473200,8.50247314453125,-19.256250381469727,-6.412500381469727,-10.237500190734863
1770950135089473300,8.512473388671875,-18.975000381469727,-6.843750476837158,-10.78125
1770950135099473200,8.52247314453125,-18.86250114440918,-6.806250095367432,-10.631250381469727
1770950135109473300,8.532473388671875,-19.200000762939453,-6.900000095367432,-10.256250381469727
1770950135119473200,8.54247314453125,-19.200000762939453,-6.750000476837158,-10.08750057220459
1770950135129473300,8.552473388671874,-19.05000114440918,-6.656250476837158,-9.600000381469727
1770950135139473200,8.56247314453125,-18.975000381469727,-6.543750286102295,-9.300000190734863
1770950135149473300,8.572473388671876,-19.481250762939453,-6.187500476837158,-8.981250762939453
1770950135159473200,8.58247314453125,-19.837501525878906,-6.018750190734863,-8.40000057220459
1770950135169473300,8.592473388671875,-19.912500381469727,-5.475000381469727,-8.081250190734863
1770950135179473200,8.60247314453125,-19.837501525878906,-5.25,-8.006250381469727
1770950135189473300,8.612473388671875,-19.98750114440918,-5.0625,-8.137500762939453
1770950135199473200,8.62247314453125,-20.212501525878906,-4.893750190734863,-8.043750762939453
1770950135209473300,8.632473388671874,-20.493751525878906,-4.575000286102295,-7.800000190734863
1770950135219473200,8.64247314453125,-20.64375114440918,-4.668750286102295,-7.425000190734863
1770950135229473300,8.652473388671876,-20.25,-4.78125,-7.500000476837158
1770950135239473200,8.66247314453125,-20.34375,-4.950000286102295,-7.612500190734863
1770950135249473300,8.672473388671875,-20.25,-5.231250286102295,-8.193750381469727
1770950135259473200,8.68247314453125,-20.4375,-5.4375,-8.550000190734863
1770950135269473300,8.692473388671875,-20.231250762939453,-5.550000190734863,-8.68125057220459
1770950135279473200,8.70247314453125,-20.137500762939453,-5.71875,-8.925000190734863
1770950135289473300,8.712473388671874,-20.118751525878906,-5.887500286102295,-9.450000762939453
1770950135299473200,8.72247314453125,-20.17500114440918,-5.775000095367432,-9.787500381469727
1770950135309473300,8.732473388671876,-19.96875,-5.962500095367432,-9.9375
1770950135319473200,8.74247314453125,-19.40625,-6.037500381469727,-10.162500381469727
1770950135329473300,8.752473388671875,-19.14375114440918,-6.187500476837158,-10.27500057220459
1770950135339473200,8.76247314453125,-18.5625,-6.131250381469727,-10.631250381469727
1770950135349473300,8.772473388671875,-18.375,-6.393750190734863,-10.987500190734863
1770950135359473200,8.78247314453125,-18.037500381469727,-6.750000476837158,-10.987500190734863
1770950135369473300,8.792473388671874,-17.92500114440918,-7.012500286102295,-11.137500762939453
1770950135379473200,8.80247314453125,-17.568750381469727,-7.331250190734863,-11.30625057220459
1770950135389473300,8.812473388671876,-17.681251525878906,-7.312500476837158,-11.550000190734863
1770950135399473200,8.82247314453125,-17.53125,-7.575000286102295,-11.96250057220459
1770950135409473300,8.832473388671875,-17.681251525878906,-7.687500476837158,-12.018750190734863
1770950135419473200,8.84247314453125,-17.568750381469727,-7.987500190734863,-11.850000381469727
1770950135429473300,8.852473388671875,-17.681251525878906,-8.193750381469727,-11.831250190734863
1770950135439473200,8.86247314453125,-17.71875,-8.325000762939453,-12.075000762939453
1770950135449473300,8.872473388671875,-17.475000381469727,-8.381250381469727,-12.093750953674316
1770950135459473200,8.88247314453125,-17.381250381469727,-8.30625057220459,-12.43125057220459
1770950135469473300,8.892473388671876,-17.08125114440918,-8.512500762939453,-13.031250953674316
1770950135479473200,8.90247314453125,-17.25,-8.606250762939453,-13.031250953674316
1770950135489473300,8.912473388671875,-16.950000762939453,-8.568750381469727,-13.256250381469727
1770950135499473200,8.92247314453125,-17.381250381469727,-8.662500381469727,-13.350000381469727
1770950135509473300,8.932473388671875,-17.493751525878906,-8.381250381469727,-12.99375057220459
1770950135519473200,8.94247314453125,-17.71875,-8.100000381469727,-12.768750190734863
1770950135529473300,8.952473388671875,-17.981250762939453,-8.175000190734863,-12.15000057220459
1770950135539473200,8.96247314453125,-18.525001525878906,-8.15625,-11.512500762939453
1770950135549473300,8.972473388671874,-19.012500762939453,-7.987500190734863,-10.350000381469727
1770950135559473200,8.98247314453125,-19.125,-7.875000476837158,-9.693750381469727
1770950135569473300,8.992473388671876,-19.537500381469727,-7.856250286102295,-8.850000381469727
1770950135579473200,9.00247314453125,-19.70625114440918,-7.706250190734863,-8.456250190734863
1770950135589473300,9.012473388671875,-19.743751525878906,-7.987500190734863,-8.662500381469727
1770950135599473200,9.02247314453125,-19.875,-8.21250057220459,-8.34375
1770950135609473300,9.032473388671875,-19.743751525878906,-8.193750381469727,-8.606250762939453
1770950135619473200,9.04247314453125,-19.21875,-8.475000381469727,-8.887500762939453
1770950135629473300,9.052473388671874,-19.087501525878906,-8.71875,-9.225000381469727
1770950135639473200,9.06247314453125,-18.67500114440918,-9.075000762939453,-9.75
1770950135649473300,9.072473388671876,-18.58125114440918,-9.168750762939453,-9.825000762939453
1770950135659473200,9.08247314453125,-18.225000381469727,-9.543750762939453,-9.99375057220459
1770950135669473300,9.092473388671875,-17.981250762939453,-9.675000190734863,-9.506250381469727
1770950135679473200,9.10247314453125,-17.775001525878906,-9.80625057220459,-9.637500762939453
1770950135689473300,9.112473388671875,-17.756250381469727,-10.012500762939453,-9.46875
1770950135699473200,9.12247314453125,-17.92500114440918,-9.99375057220459,-9.24375057220459
1770950135709473300,9.132473388671874,-17.83125114440918,-10.106250762939453,-9.037500381469727
1770950135719473200,9.14247314453125,-18.243751525878906,-10.068750381469727,-8.643750190734863
1770950135729473300,9.152473388671876,-18.48750114440918,-10.08750057220459,-8.58750057220459
1770950135739473200,9.16247314453125,-18.356250762939453,-10.3125,-8.512500762939453
1770950135749473300,9.172473388671875,-18.46875,-10.443750381469727,-8.737500190734863
1770950135759473200,9.18247314453125,-18.431251525878906,-10.818750381469727,-8.86875057220459
1770950135769473300,9.192473388671875,-18.525001525878906,-11.043750762939453,-9
1770950135779473200,9.20247314453125,-18.337501525878906,-11.268750190734863,-8.831250190734863
1770950135789473300,9.212473388671874,-18.262500762939453,-11.512500762939453,-8.40000057220459
1770950135799473200,9.22247314453125,-18.28125,-11.40000057220459,-8.043750762939453
1770950135809473300,9.232473388671876,-17.793750762939453,-11.90625,-7.875000476837158
1770950135819473200,9.24247314453125,-17.943750381469727,-12.075000762939453,-7.668750286102295
1770950135829473300,9.252473388671875,-17.981250762939453,-12.393750190734863,-7.481250286102295
1770950135839473200,9.26247314453125,-17.868751525878906,-12.71250057220459,-7.237500190734863
1770950135849473300,9.272473388671875,-17.71875,-13.012500762939453,-6.862500190734863
1770950135859473200,9.28247314453125,-17.92500114440918,-13.312500953674316,-6.731250286102295
1770950135869473300,9.292473388671874,-17.850000381469727,-13.425000190734863,-6.618750095367432
1770950135879473200,9.30247314453125,-17.568750381469727,-13.968750953674316,-6.750000476837158
1770950135889473300,9.312473388671876,-17.512500762939453,-14.175000190734863,-7.143750190734863
1770950135899473200,9.32247314453125,-17.475000381469727,-14.49375057220459,-7.275000095367432
1770950135909473300,9.332473388671875,-17.118751525878906,-14.362500190734863,-7.631250381469727
1770950135919473200,9.34247314453125,-16.837501525878906,-14.100000381469727,-7.612500190734863
1770950135929473300,9.352473388671875,-16.61250114440918,-14.175000190734863,-7.893750190734863
1770950135939473200,9.36247314453125,-16.200000762939453,-13.950000762939453,-8.02500057220459
1770950135949473300,9.372473388671875,-16.3125,-14.006250381469727,-8.362500190734863
1770950135959473200,9.38247314453125,-16.556251525878906,-14.100000381469727,-8.21250057220459
1770950135969473300,9.392473388671876,-16.856250762939453,-13.856250762939453,-7.593750476837158
1770950135979473200,9.40247314453125,-16.78125,-13.74375057220459,-7.368750095367432
1770950135989473300,9.412473388671875,-16.98750114440918,-13.65000057220459,-6.712500095367432
1770950135999473200,9.42247314453125,-17.568750381469727,-13.687500953674316,-6.450000286102295
1770950136009473300,9.432473388671875,-18.056251525878906,-13.46250057220459,-6
1770950136019473200,9.44247314453125,-18.412500381469727,-13.706250190734863,-5.962500095367432
1770950136029473300,9.452473388671875,-18.337501525878906,-13.706250190734863,-6.075000286102295
1770950136039473200,9.46247314453125,-18.01875114440918,-13.518750190734863,-6.637500286102295
1770950136049473300,9.472473388671874,-17.700000762939453,-13.856250762939453,-7.800000190734863
1770950136059473200,9.48247314453125,-17.850000381469727,-13.500000953674316,-7.912500381469727
1770950136069473300,9.492473388671876,-17.64375114440918,-13.387500762939453,-8.456250190734863
1770950136079473200,9.50247314453125,-17.512500762939453,-13.200000762939453,-9.206250190734863
1770950136089473300,9.512473388671875,-17.118751525878906,-13.200000762939453,-9.52500057220459
1770950136099473200,9.52247314453125,-17.306251525878906,-13.031250953674316,-9.506250381469727
1770950136109473300,9.532473388671875,-17.53125,-12.637500762939453,-9.300000190734863
1770950136119473200,9.54247314453125,-17.73750114440918,-12.52500057220459,-9.112500190734863
1770950136129473300,9.552473388671874,-17.943750381469727,-12.018750190734863,-8.268750190734863
1770950136139473200,9.56247314453125,-18.037500381469727,-11.925000190734863,-8.193750381469727
1770950136149473300,9.572473388671876,-18.543750762939453,-11.53125,-7.837500095367432
1770950136159473200,9.58247314453125,-18.67500114440918,-11.418750762939453,-7.275000095367432
1770950136169473300,9.592473388671875,-18.9375,-11.25,-7.031250476837158
1770950136179473200,9.60247314453125,-18.712501525878906,-10.893750190734863,-7.125000476837158
1770950136189473300,9.612473388671875,-18.543750762939453,-10.875,-7.406250476837158
1770950136199473200,9.62247314453125,-18.825000762939453,-10.74375057220459,-7.350000381469727
1770950136209473300,9.632473388671874,-18.787500381469727,-10.6875,-7.818750381469727
1770950136219473200,9.64247314453125,-18.881250381469727,-10.612500190734863,-8.30625057220459
1770950136229473300,9.652473388671876,-18.712501525878906,-10.65000057220459,-8.793750762939453
1770950136239473200,9.66247314453125,-18.58125114440918,-10.631250381469727,-9.15000057220459
1770950136249473300,9.672473388671875,-18.5625,-10.518750190734863,-9.693750381469727
1770950136259473200,9.68247314453125,-18.637500762939453,-10.5,-9.881250381469727
1770950136269473300,9.692473388671875,-18.975000381469727,-10.387500762939453,-9.75
1770950136279473200,9.70247314453125,-18.95625114440918,-9.731250762939453,-9.787500381469727
1770950136289473300,9.712473388671874,-19.162500381469727,-9.412500381469727,-9.693750381469727
1770950136299473200,9.72247314453125,-19.256250381469727,-8.943750381469727,-9.206250190734863
1770950136309473300,9.732473388671876,-19.14375114440918,-8.887500762939453,-9.131250381469727
1770950136319473200,9.74247314453125,-19.14375114440918,-8.418750762939453,-9.24375057220459
1770950136329473300,9.752473388671875,-19.200000762939453,-8.02500057220459,-9.09375
1770950136339473200,9.76247314453125,-19.275001525878906,-7.575000286102295,-9.225000381469727
1770950136349473300,9.772473388671875,-18.86250114440918,-7.425000190734863,-9.675000190734863
1770950136359473200,9.78247314453125,-18.65625,-7.612500190734863,-9.862500190734863
1770950136369473300,9.792473388671874,-18.65625,-7.481250286102295,-10.050000190734863
1770950136379473200,9.80247314453125,-18.48750114440918,-7.668750286102295,-11.02500057220459
1770950136389473300,9.812473388671876,-18.543750762939453,-7.593750476837158,-11.793750762939453
1770950136399473200,9.82247314453125,-18.412500381469727,-7.706250190734863,-12.543750762939453
1770950136409473300,9.832473388671875,-18.28125,-7.706250190734863,-13.143750190734863
1770950136419473200,9.84247314453125,-18.243751525878906,-7.818750381469727,-13.500000953674316
1770950136429473300,9.852473388671875,-18.600000381469727,-7.556250095367432,-13.575000762939453
1770950136439473200,9.86247314453125,-18.46875,-7.275000095367432,-13.875000953674316
1770950136449473300,9.872473388671875,-18.318750381469727,-7.200000286102295,-14.137500762939453
1770950136459473200,9.88247314453125,-18.262500762939453,-6.956250190734863,-13.987500190734863
1770950136469473300,9.892473388671876,-18.150001525878906,-6.675000190734863,-13.631250381469727
1770950136479473200,9.90247314453125,-18.356250762939453,-6.543750286102295,-13.068750381469727
1770950136489473300,9.912473388671875,-18.20625114440918,-6.468750476837158,-12.768750190734863
1770950136499473200,9.92247314453125,-18.1875,-6.281250476837158,-12.600000381469727
1770950136509473300,9.932473388671875,-17.662500381469727,-6.225000381469727,-12.80625057220459
1770950136519473200,9.94247314453125,-18.075000762939453,-6.431250095367432,-12.975000381469727
1770950136529473300,9.952473388671875,-18.262500762939453,-6.262500286102295,-12.862500190734863
1770950136539473200,9.96247314453125,-18.1875,-6.093750476837158,-12.600000381469727
1770950136549473300,9.972473388671874,-18.58125114440918,-5.831250190734863,-12.225000381469727
1770950136559473200,9.98247314453125,-18.95625114440918,-5.475000381469727,-11.925000190734863
1770950136569473300,9.992473388671876,-19.387500762939453,-5.231250286102295,-11.68125057220459
1770950136579473200,10.00247314453125,-19.61250114440918,-4.856250286102295,-11.137500762939453
1770950136589473300,10.012473388671875,-20.306251525878906,-4.612500190734863,-10.5
1770950136599473200,10.02247314453125,-20.45625114440918,-4.200000286102295,-9.825000762939453
1770950136609473300,10.032473388671875,-20.4375,-3.937500238418579,-9.318750381469727
1770950136619473200,10.04247314453125,-20.8125,-3.9750001430511475,-8.86875057220459
1770950136629473300,10.052473388671874,-21.01875114440918,-3.9562501907348633,-8.418750762939453
1770950136639473200,10.06247314453125,-21.01875114440918,-3.9750001430511475,-8.25
1770950136649473300,10.072473388671876,-21.262500762939453,-4.03125,-7.950000286102295
1770950136659473200,10.08247314453125,-21.375,-4.087500095367432,-7.987500190734863
1770950136669473300,10.092473388671875,-21.20625114440918,-4.181250095367432,-7.931250095367432
1770950136679473200,10.10247314453125,-21.168750762939453,-4.050000190734863,-7.893750190734863
1770950136689473300,10.112473388671875,-21.225000381469727,-4.275000095367432,-8.175000190734863
1770950136699473200,10.12247314453125,-21.150001525878906,-4.03125,-8.456250190734863
1770950136709473300,10.132473388671874,-20.887500762939453,-4.200000286102295,-8.77500057220459
1770950136719473200,10.14247314453125,-20.887500762939453,-4.068750381469727,-8.96250057220459
1770950136729473300,10.152473388671876,-20.625,-4.03125,-9.018750190734863
1770950136739473200,10.16247314453125,-20.568750381469727,-4.181250095367432,-8.887500762939453
1770950136749473300,10.172473388671875,-20.45625114440918,-4.050000190734863,-8.68125057220459
1770950136759473200,10.18247314453125,-20.25,-4.050000190734863,-8.68125057220459
1770950136769473300,10.192473388671875,-20.212501525878906,-4.125,-8.475000381469727
1770950136779473200,10.20247314453125,-19.96875,-4.275000095367432,-8.081250190734863
1770950136789473300,10.212473388671874,-19.856250762939453,-4.21875,-7.875000476837158
1770950136799473200,10.22247314453125,-19.59375,-4.425000190734863,-7.593750476837158
1770950136809473300,10.232473388671876,-19.51875114440918,-4.387500286102295,-7.612500190734863
1770950136819473200,10.24247314453125,-19.443750381469727,-4.706250190734863,-7.631250381469727
1770950136829473300,10.252473388671875,-19.51875114440918,-4.893750190734863,-7.743750095367432
1770950136839473200,10.26247314453125,-19.462501525878906,-5.100000381469727,-7.631250381469727
1770950136849473300,10.272473388671875,-19.368751525878906,-5.100000381469727,-7.500000476837158
1770950136859473200,10.28247314453125,-19.556251525878906,-5.25,-7.500000476837158
1770950136869473300,10.292473388671874,-19.668750762939453,-5.381250381469727,-7.293750286102295
1770950136879473200,10.30247314453125,-19.631250381469727,-5.325000286102295,-7.462500095367432
1770950136889473300,10.312473388671876,-19.89375114440918,-5.493750095367432,-7.575000286102295
1770950136899473200,10.32247314453125,-20.118751525878906,-5.212500095367432,-7.462500095367432
1770950136909473300,10.332473388671875,-20.006250381469727,-5.34375,-7.743750095367432
1770950136919473200,10.34247314453125,-20.15625,-5.493750095367432,-7.931250095367432
1770950136929473300,10.352473388671875,-20.137500762939453,-5.4375,-8.043750762939453
1770950136939473200,10.36247314453125,-19.762500762939453,-5.53125,-8.25
1770950136949473300,10.372473388671875,-19.5,-5.662500381469727,-8.643750190734863
1770950136959473200,10.38247314453125,-19.462501525878906,-6.075000286102295,-8.756250381469727
1770950136969473300,10.392473388671876,-19.181251525878906,-6.506250381469727,-9.075000762939453
1770950136979473200,10.40247314453125,-18.76875114440918,-6.731250286102295,-9.71250057220459
1770950136989473300,10.412473388671875,-18.525001525878906,-7.106250286102295,-9.956250190734863
1770950136999473200,10.42247314453125,-18.375,-7.256250381469727,-10.200000762939453
1770950137009473300,10.432473388671875,-18.262500762939453,-7.875000476837158,-10.481250762939453
1770950137019473200,10.44247314453125,-18.46875,-8.043750762939453,-11.02500057220459
1770950137029473300,10.452473388671875,-18.412500381469727,-8.606250762939453,-11.550000190734863
1770950137039473200,10.46247314453125,-17.868751525878906,-8.77500057220459,-12.018750190734863
1770950137049473300,10.472473388671874,-17.756250381469727,-8.793750762939453,-12.075000762939453
1770950137059473200,10.48247314453125,-17.64375114440918,-8.86875057220459,-11.77500057220459
1770950137069473300,10.492473388671876,-17.587501525878906,-9.018750190734863,-11.643750190734863
1770950137079473200,10.50247314453125,-17.418750762939453,-9.412500381469727,-11.381250381469727
1770950137089473300,10.512473388671875,-17.400001525878906,-9.318750381469727,-11.175000190734863
1770950137099473200,10.52247314453125,-17.25,-9.131250381469727,-10.537500381469727
1770950137109473300,10.532473388671875,-17.212501525878906,-8.737500190734863,-9.862500190734863
1770950137119473200,10.54247314453125,-17.775001525878906,-8.625,-9.112500190734863
1770950137129473300,10.552473388671874,-17.868751525878906,-8.381250381469727,-8.77500057220459
1770950137139473200,10.56247314453125,-18,-8.475000381469727,-8.456250190734863
1770950137149473300,10.572473388671876,-18.09375,-7.987500190734863,-8.287500381469727
1770950137159473200,10.58247314453125,-18.375,-7.612500190734863,-8.268750190734863
1770950137169473300,10.592473388671875,-18.46875,-7.368750095367432,-8.231250762939453
1770950137179473200,10.60247314453125,-18.5625,-7.387500286102295,-8.268750190734863
1770950137189473300,10.612473388671875,-18.9375,-7.350000381469727,-8.21250057220459
1770950137199473200,10.62247314453125,-19.068750381469727,-7.162500381469727,-8.15625
1770950137209473300,10.632473388671874,-19.106250762939453,-7.143750190734863,-7.743750095367432
1770950137219473200,10.64247314453125,-19.275001525878906,-6.956250190734863,-7.856250286102295
1770950137229473300,10.652473388671876,-19.59375,-6.862500190734863,-7.575000286102295
1770950137239473200,10.66247314453125,-19.556251525878906,-6.731250286102295,-7.556250095367432
1770950137249473300,10.672473388671875,-19.575000762939453,-6.675000190734863,-7.256250381469727
1770950137259473200,10.68247314453125,-19.762500762939453,-6.525000095367432,-7.312500476837158
1770950137269473300,10.692473388671875,-19.931251525878906,-6.243750095367432,-7.462500095367432
1770950137279473200,10.70247314453125,-19.650001525878906,-6.262500286102295,-7.650000095367432
1770950137289473300,10.712473388671874,-19.70625114440918,-6.037500381469727,-8.34375
1770950137299473200,10.72247314453125,-19.59375,-5.775000095367432,-8.887500762939453
1770950137309473300,10.732473388671876,-19.481250762939453,-5.681250095367432,-8.943750381469727
1770950137319473200,10.74247314453125,-19.387500762939453,-5.325000286102295,-8.981250762939453
1770950137329473300,10.752473388671875,-19.5,-4.818750381469727,-9.018750190734863
1770950137339473200,10.76247314453125,-19.368751525878906,-4.743750095367432,-8.86875057220459
1770950137349473300,10.772473388671875,-19.162500381469727,-4.6875,-8.550000190734863
1770950137359473200,10.78247314453125,-19.350000381469727,-4.443750381469727,-8.49375057220459
1770950137369473300,10.792473388671874,-19.293750762939453,-4.518750190734863,-8.25
1770950137379473200,10.80247314453125,-19.40625,-4.462500095367432,-7.537500381469727
1770950137389473300,10.812473388671876,-19.61250114440918,-4.575000286102295,-7.462500095367432
1770950137399473200,10.82247314453125,-19.59375,-4.6875,-6.993750095367432
1770950137409473300,10.832473388671875,-19.818750381469727,-4.78125,-6.900000095367432
1770950137419473200,10.84247314453125,-19.762500762939453,-4.556250095367432,-6.637500286102295
1770950137429473300,10.852473388671875,-19.89375114440918,-4.275000095367432,-6.618750095367432
1770950137439473200,10.86247314453125,-20.287500381469727,-3.9750001430511475,-6.450000286102295
1770950137449473300,10.872473388671875,-20.4375,-3.750000238418579,-6
1770950137459473200,10.88247314453125,-20.71875,-3.6750001907348633,-6.243750095367432
1770950137469473300,10.892473388671876,-21.09375,-3.2062501907348633,-6.056250095367432
1770950137479473200,10.90247314453125,-21.58125114440918,-3.0187501907348633,-6.243750095367432
1770950137489473300,10.912473388671875,-21.618751525878906,-2.7375001907348633,-6.281250476837158
1770950137499473200,10.92247314453125,-21.787500381469727,-2.6812500953674316,-6.656250476837158
1770950137509473300,10.932473388671875,-21.825000762939453,-2.8500001430511475,-6.937500476837158
1770950137519473200,10.94247314453125,-21.731250762939453,-2.90625,-6.806250095367432
1770950137529473300,10.952473388671875,-21.806251525878906,-2.71875,-6.768750190734863
1770950137539473200,10.96247314453125,-21.618751525878906,-2.6437501907348633,-6.618750095367432
1770950137549473300,10.972473388671874,-21.318750381469727,-2.71875,-6.525000095367432
1770950137559473200,10.98247314453125,-21.1875,-2.5687501430511475,-6.543750286102295
1770950137569473300,10.992473388671876,-21.131250381469727,-2.3625001907348633,-6.562500476837158
1770950137579473200,11.00247314453125,-21.412500381469727,-2.0812501907348633,-6.056250095367432
1770950137589473300,11.012473388671875,-21.543750762939453,-1.6500000953674316,-5.71875
1770950137599473200,11.02247314453125,-21.5625,-1.2750000953674316,-6
1770950137609473300,11.032473388671875,-21.431251525878906,-1.068750023841858,-6.112500190734863
1770950137619473200,11.04247314453125,-21.337501525878906,-0.9750000238418579,-6.281250476837158
1770950137629473300,11.052473388671874,-21.225000381469727,-0.956250011920929,-7.012500286102295
1770950137639473200,11.06247314453125,-20.90625,-0.9750000238418579,-7.275000095367432
1770950137649473300,11.072473388671876,-20.793750762939453,-1.1812500953674316,-7.425000190734863
1770950137659473200,11.08247314453125,-20.700000762939453,-1.7062500715255737,-8.11875057220459
1770950137669473300,11.092473388671875,-20.137500762939453,-2.043750047683716,-8.737500190734863
1770950137679473200,11.10247314453125,-19.743751525878906,-2.606250047683716,-8.90625
1770950137689473300,11.112473388671875,-19.856250762939453,-3,-9.15000057220459
1770950137699473200,11.12247314453125,-20.137500762939453,-3.187500238418579,-9.24375057220459
1770950137709473300,11.132473388671874,-19.89375114440918,-3.2437500953674316,-9.225000381469727
1770950137719473200,11.14247314453125,-20.17500114440918,-3.450000047683716,-9.393750190734863
1770950137729473300,11.152473388671876,-20.36250114440918,-3.5250000953674316,-9.393750190734863
1770950137739473200,11.16247314453125,-20.17500114440918,-3.3375000953674316,-9.1875
1770950137749473300,11.172473388671875,-20.45625114440918,-3.5812501907348633,-9.28125
1770950137759473200,11.18247314453125,-20.493751525878906,-3.6937501430511475,-9.300000190734863
1770950137769473300,11.192473388671875,-20.306251525878906,-3.5062501430511475,-9.225000381469727
1770950137779473200,11.20247314453125,-19.743751525878906,-3.843750238418579,-9.131250381469727
1770950137789473300,11.212473388671874,-19.762500762939453,-4.200000286102295,-9.05625057220459
1770950137799473200,11.22247314453125,-19.556251525878906,-4.425000190734863,-8.96250057220459
1770950137809473300,11.232473388671876,-19.33125114440918,-4.912500381469727,-8.831250190734863
1770950137819473200,11.24247314453125,-19.575000762939453,-5.175000190734863,-8.568750381469727
1770950137829473300,11.252473388671875,-19.387500762939453,-5.137500286102295,-8.25
1770950137839473200,11.26247314453125,-19.5,-5.118750095367432,-8.4375
1770950137849473300,11.272473388671875,-19.443750381469727,-5.325000286102295,-9.09375
1770950137859473200,11.28247314453125,-19.668750762939453,-4.837500095367432,-9.356250762939453
1770950137869473300,11.292473388671874,-19.725000381469727,-4.518750190734863,-9.61875057220459
1770950137879473200,11.30247314453125,-19.912500381469727,-3.9562501907348633,-9.65625
1770950137889473300,11.312473388671876,-20.006250381469727,-3.4125001430511475,-10.050000190734863
1770950137899473200,11.32247314453125,-20.043750762939453,-3.075000047683716,-10.78125
1770950137909473300,11.332473388671875,-20.193750381469727,-2.8312501907348633,-11.15625
1770950137919473200,11.34247314453125,-19.98750114440918,-2.4000000953674316,-11.231250762939453
1770950137929473300,11.352473388671875,-20.006250381469727,-2.1187500953674316,-10.800000190734863
1770950137939473200,11.36247314453125,-20.193750381469727,-2.2875001430511475,-11.006250381469727
1770950137949473300,11.372473388671875,-20.26875114440918,-2.3062500953674316,-10.6875
1770950137959473200,11.38247314453125,-19.98750114440918,-2.512500047683716,-10.74375057220459
1770950137979473200,11.40247314453125,-19.78125,-2.71875,-10.537500381469727
1770950137989473300,11.412473388671875,-19.743751525878906,-2.9625000953674316,-10.668750762939453
1770950137999473200,11.42247314453125,-19.80000114440918,-3.0562500953674316,-10.293750762939453
1770950138009473300,11.432473388671875,-19.875,-3.262500047683716,-10.5
1770950138029473300,11.452473388671875,-19.837501525878906,-3.3937501907348633,-10.987500190734863
1770950138039473200,11.46247314453125,-19.837501525878906,-3.637500047683716,-11.362500190734863
1770950138049473300,11.472473388671874,-19.856250762939453,-3.9750001430511475,-11.550000190734863
1770950138059473200,11.48247314453125,-19.350000381469727,-4.3125,-12.206250190734863
1770950138069473300,11.492473388671876,-19.293750762939453,-4.40625,-12.52500057220459
1770950138079473200,11.50247314453125,-19.21875,-4.631250381469727,-13.08750057220459
1770950138089473300,11.512473388671875,-19.14375114440918,-4.818750381469727,-13.27500057220459
1770950138099473200,11.52247314453125,-19.125,-4.856250286102295,-13.08750057220459
1770950138109473300,11.532473388671875,-18.86250114440918,-4.912500381469727,-12.862500190734863
1770950138119473200,11.54247314453125,-18.95625114440918,-4.837500095367432,-12.675000190734863
1770950138129473300,11.552473388671874,-19.181251525878906,-4.668750286102295,-12.281250953674316
1770950138139473200,11.56247314453125,-19.481250762939453,-4.462500095367432,-11.86875057220459
1770950138149473300,11.572473388671876,-19.631250381469727,-4.256250381469727,-11.25
1770950138159473200,11.58247314453125,-20.025001525878906,-4.256250381469727,-10.706250190734863
1770950138169473300,11.592473388671875,-20.26875114440918,-3.9000000953674316,-10.46250057220459
1770950138179473200,11.60247314453125,-20.15625,-3.8062500953674316,-10.40625
1770950138189473300,11.612473388671875,-20.287500381469727,-3.375000238418579,-10.143750190734863
1770950138199473200,11.62247314453125,-20.381250381469727,-3.187500238418579,-10.03125
1770950138209473300,11.632473388671874,-20.26875114440918,-3.2437500953674316,-10.200000762939453
1770950138219473200,11.64247314453125,-20.17500114440918,-3.356250047683716,-10.40625
1770950138229473300,11.652473388671876,-20.231250762939453,-3.4125001430511475,-10.518750190734863
1770950138239473200,11.66247314453125,-20.118751525878906,-3.3375000953674316,-10.856250762939453
1770950138249473300,11.672473388671875,-19.931251525878906,-3.3187501430511475,-10.706250190734863
1770950138259473200,11.68247314453125,-20.325000762939453,-3.281250238418579,-10.950000762939453
1770950138269473300,11.692473388671875,-20.512500762939453,-3.2250001430511475,-11.137500762939453
1770950138279473200,11.70247314453125,-20.568750381469727,-3.1500000953674316,-11.0625
1770950138289473300,11.712473388671874,-20.53125,-2.7375001907348633,-10.83750057220459
1770950138299473200,11.72247314453125,-20.850000381469727,-2.2687501907348633,-10.59375
1770950138309473300,11.732473388671876,-20.887500762939453,-1.8000000715255737,-10.425000190734863
1770950138319473200,11.74247314453125,-20.83125114440918,-1.4625000953674316,-10.27500057220459
1770950138329473300,11.752473388671875,-20.850000381469727,-1.3312500715255737,-10.331250190734863
1770950138339473200,11.76247314453125,-20.64375114440918,-1.0500000715255737,-10.125
1770950138349473300,11.772473388671875,-20.606250762939453,-0.9375000596046448,-10.050000190734863
1770950138359473200,11.78247314453125,-20.681251525878906,-0.9375000596046448,-10.537500381469727
1770950138369473300,11.792473388671874,-20.625,-0.768750011920929,-10.950000762939453
1770950138379473200,11.80247314453125,-20.475000381469727,-0.581250011920929,-11.006250381469727
1770950138389473300,11.812473388671876,-20.418750762939453,-0.6187500357627869,-11.287500381469727
1770950138399473200,11.82247314453125,-20.475000381469727,-0.5625,-11.68125057220459
1770950138409473300,11.832473388671875,-20.606250762939453,-0.3187500238418579,-12.206250190734863
1770950138419473200,11.84247314453125,-20.775001525878906,0,-12.281250953674316
1770950138429473300,11.852473388671875,-20.512500762939453,0.4125000238418579,-12.52500057220459
1770950138439473200,11.86247314453125,-20.34375,0.956250011920929,-12.33750057220459
1770950138449473300,11.872473388671875,-20.512500762939453,1.3687500953674316,-12.225000381469727
1770950138459473200,11.88247314453125,-20.625,1.7062500715255737,-12.318750381469727
1770950138469473300,11.892473388671876,-20.418750762939453,2.1187500953674316,-12.468750953674316
1770950138479473200,11.90247314453125,-20.34375,2.5687501430511475,-12.562500953674316
1770950138489473300,11.912473388671875,-20.118751525878906,2.887500047683716,-12.468750953674316
1770950138499473200,11.92247314453125,-19.575000762939453,2.8500001430511475,-13.36875057220459
1770950138509473300,11.932473388671875,-19.78125,2.7750000953674316,-13.800000190734863
1770950138519473200,11.94247314453125,-19.650001525878906,2.9437501430511475,-14.02500057220459
1770950138529473300,11.952473388671875,-19.42500114440918,2.8312501907348633,-14.268750190734863
1770950138539473200,11.96247314453125,-19.256250381469727,2.7562501430511475,-14.437500953674316
1770950138549473300,11.972473388671874,-19.462501525878906,2.5687501430511475,-14.58750057220459
1770950138559473200,11.98247314453125,-19.59375,2.4750001430511475,-14.662500381469727
1770950138569473300,11.992473388671876,-19.743751525878906,2.4000000953674316,-14.531250953674316
1770950138579473200,12.00247314453125,-20.006250381469727,2.512500047683716,-14.175000190734863
1770950138589473300,12.012473388671875,-20.0625,2.418750047683716,-13.968750953674316
1770950138599473200,12.02247314453125,-20.17500114440918,2.15625,-13.987500190734863
1770950138609473300,12.032473388671875,-20.08125114440918,2.418750047683716,-13.856250762939453
1770950138619473200,12.04247314453125,-19.98750114440918,2.5687501430511475,-13.818750381469727
1770950138629473300,12.052473388671874,-19.743751525878906,2.887500047683716,-13.818750381469727
1770950138639473200,12.06247314453125,-19.556251525878906,2.9625000953674316,-13.781250953674316
1770950138649473300,12.072473388671876,-19.106250762939453,3.075000047683716,-14.175000190734863
1770950138659473200,12.08247314453125,-19.068750381469727,3.356250047683716,-14.287500381469727
1770950138669473300,12.092473388671875,-18.9375,3.7875001430511475,-14.475000381469727
1770950138679473200,12.10247314453125,-18.918750762939453,4.068750381469727,-14.662500381469727
1770950138689473300,12.112473388671875,-18.825000762939453,4.237500190734863,-14.77500057220459
1770950138699473200,12.12247314453125,-18.84375,4.556250095367432,-14.68125057220459
1770950138709473300,12.132473388671874,-18.86250114440918,4.6875,-14.756250381469727
1770950138719473200,12.14247314453125,-18.787500381469727,4.931250095367432,-14.718750953674316
1770950138729473300,12.152473388671876,-19.03125,5.0625,-14.231250762939453
1770950138739473200,12.16247314453125,-19.181251525878906,5.231250286102295,-13.781250953674316
1770950138749473300,12.172473388671875,-19.181251525878906,5.53125,-13.312500953674316
1770950138759473200,12.18247314453125,-19.3125,5.775000095367432,-13.18125057220459
1770950138769473300,12.192473388671875,-19.61250114440918,6.037500381469727,-13.27500057220459
1770950138779473200,12.20247314453125,-19.856250762939453,6.243750095367432,-13.387500762939453
1770950138789473300,12.212473388671874,-19.912500381469727,6.581250190734863,-13.256250381469727
1770950138799473200,12.22247314453125,-19.89375114440918,6.937500476837158,-13.08750057220459
1770950138809473300,12.232473388671876,-20.15625,7.350000381469727,-13.256250381469727
1770950138819473200,12.24247314453125,-19.931251525878906,7.425000190734863,-13.312500953674316
1770950138829473300,12.252473388671875,-20.100000381469727,7.537500381469727,-12.956250190734863
1770950138839473200,12.26247314453125,-20.137500762939453,7.706250190734863,-12.656250953674316
1770950138849473300,12.272473388671875,-20.306251525878906,7.931250095367432,-12.281250953674316
1770950138859473200,12.28247314453125,-20.34375,8.137500762939453,-12.112500190734863
1770950138869473300,12.292473388671874,-20.64375114440918,8.231250762939453,-11.831250190734863
1770950138879473200,12.30247314453125,-20.868751525878906,8.381250381469727,-11.643750190734863
1770950138889473300,12.312473388671876,-20.868751525878906,8.456250190734863,-11.287500381469727
1770950138899473200,12.32247314453125,-21.450000762939453,8.737500190734863,-11.043750762939453
1770950138909473300,12.332473388671875,-21.48750114440918,8.737500190734863,-11.30625057220459
1770950138919473200,12.34247314453125,-21.543750762939453,8.86875057220459,-11.381250381469727
1770950138929473300,12.352473388671875,-21.39375114440918,8.8125,-11.96250057220459
1770950138939473200,12.36247314453125,-21.11250114440918,8.475000381469727,-11.887500762939453
1770950138949473300,12.372473388671875,-21.075000762939453,8.193750381469727,-12.112500190734863
1770950138959473200,12.38247314453125,-21.431251525878906,8.081250190734863,-12.131250381469727
1770950138969473300,12.392473388671876,-21.712501525878906,8.006250381469727,-12.112500190734863
1770950138979473200,12.40247314453125,-21.412500381469727,7.650000095367432,-12.075000762939453
1770950138989473300,12.412473388671875,-21.525001525878906,7.331250190734863,-12.037500381469727
1770950138999473200,12.42247314453125,-21.318750381469727,7.237500190734863,-11.643750190734863
1770950139009473300,12.432473388671875,-21.337501525878906,7.031250476837158,-10.893750190734863
1770950139019473200,12.44247314453125,-21.506250381469727,6.881250381469727,-10.987500190734863
1770950139029473300,12.452473388671875,-21.39375114440918,6.693750381469727,-11.40000057220459
1770950139039473200,12.46247314453125,-20.943750381469727,6.356250286102295,-11.90625
1770950139049473300,12.472473388671874,-20.325000762939453,5.868750095367432,-12.90000057220459
1770950139069473300,12.492473388671876,-19.200000762939453,4.612500190734863,-16.068750381469727
1770950139079473200,12.50247314453125,-18.881250381469727,3.8812501430511475,-18.225000381469727
1770950139089473300,12.512473388671875,-18.46875,3.1500000953674316,-19.96875
1770950139109473300,12.532473388671875,-17.64375114440918,1.9875000715255737,-23.08125114440918
1770950139119473200,12.54247314453125,-17.26875114440918,1.5937501192092896,-24.131250381469727
1770950139129473300,12.552473388671874,-17.381250381469727,1.1437500715255737,-24.787500381469727
1770950139139473200,12.56247314453125,-17.26875114440918,1.1812500953674316,-25.087501525878906
1770950139149473300,12.572473388671876,-17.512500762939453,1.2375000715255737,-24.637500762939453
1770950139159473200,12.58247314453125,-17.850000381469727,1.2937500476837158,-24.150001525878906
1770950139169473300,12.592473388671875,-17.962501525878906,1.5750000476837158,-23.512500762939453
1770950139179473200,12.60247314453125,-18.262500762939453,1.9875000715255737,-21.95625114440918
1770950139189473300,12.612473388671875,-18.543750762939453,2.231250047683716,-20.92500114440918
1770950139199473200,12.62247314453125,-18.84375,2.1937501430511475,-20.006250381469727
1770950139209473300,12.632473388671874,-18.525001525878906,2.2125000953674316,-19.818750381469727
1770950139219473200,12.64247314453125,-18.543750762939453,2.3062500953674316,-19.61250114440918
1770950139229473300,12.652473388671876,-18.637500762939453,2.418750047683716,-19.40625
1770950139239473200,12.66247314453125,-18.5625,2.3812501430511475,-18.731250762939453
1770950139249473300,12.672473388671875,-18.787500381469727,2.231250047683716,-18.412500381469727
1770950139259473200,12.68247314453125,-19.181251525878906,2.0250000953674316,-18.412500381469727
1770950139269473300,12.692473388671875,-19.162500381469727,1.9687501192092896,-18.412500381469727
1770950139279473200,12.70247314453125,-19.3125,2.0812501907348633,-18.75
1770950139289473300,12.712473388671874,-19.89375114440918,2.2875001430511475,-17.90625
1770950139299473200,12.72247314453125,-20.287500381469727,2.4750001430511475,-17.25
1770950139309473300,12.732473388671876,-20.15625,2.4937500953674316,-17.287500381469727
1770950139319473200,12.74247314453125,-20.193750381469727,2.5687501430511475,-16.856250762939453
1770950139329473300,12.752473388671875,-19.70625114440918,2.5500001907348633,-17.043750762939453
1770950139339473200,12.76247314453125,-19.368751525878906,2.9437501430511475,-16.70625114440918
1770950139349473300,12.772473388671875,-19.3125,2.8500001430511475,-16.51875114440918
1770950139359473200,12.78247314453125,-19.33125114440918,2.7375001907348633,-16.125
1770950139369473300,12.792473388671874,-19.275001525878906,2.8500001430511475,-16.256250381469727
1770950139379473200,12.80247314453125,-19.21875,2.8125,-16.51875114440918
1770950139389473300,12.812473388671876,-19.650001525878906,3.0562500953674316,-15.843750953674316
1770950139399473200,12.82247314453125,-19.70625114440918,3.075000047683716,-16.70625114440918
1770950139409473300,12.832473388671875,-20.100000381469727,3.450000047683716,-17.08125114440918
1770950139419473200,12.84247314453125,-20.025001525878906,3.4312500953674316,-18.356250762939453
1770950139429473300,12.852473388671875,-19.856250762939453,3.8625001907348633,-19.068750381469727
1770950139439473200,12.86247314453125,-19.556251525878906,4.200000286102295,-19.98750114440918
1770950139449473300,12.872473388671875,-19.762500762939453,4.59375,-20.0625
1770950139469473300,12.892473388671876,-19.256250381469727,5.175000190734863,-20.64375114440918
1770950139479473200,12.90247314453125,-19.14375114440918,5.587500095367432,-20.025001525878906
1770950139489473300,12.912473388671875,-18.993751525878906,5.456250190734863,-19.78125
1770950139499473200,12.92247314453125,-19.162500381469727,5.681250095367432,-18.918750762939453
1770950139509473300,12.932473388671875,-19.556251525878906,5.793750286102295,-18.412500381469727
1770950139519473200,12.94247314453125,-19.80000114440918,6.018750190734863,-17.83125114440918
1770950139529473300,12.952473388671875,-19.59375,6,-17.775001525878906
1770950139539473200,12.96247314453125,-19.6875,5.887500286102295,-17.775001525878906
1770950139549473300,12.972473388671874,-19.70625114440918,6.093750476837158,-17.4375
1770950139559473200,12.98247314453125,-19.5,6.131250381469727,-17.793750762939453
1770950139569473300,12.992473388671876,-19.61250114440918,6.412500381469727,-17.8125
1770950139579473200,13.00247314453125,-19.40625,6.225000381469727,-18.1875
1770950139589473300,13.012473388671875,-18.543750762939453,6.131250381469727,-18.787500381469727
1770950139599473200,13.02247314453125,-18.11250114440918,6.075000286102295,-18.900001525878906
1770950139609473300,13.032473388671875,-17.53125,5.587500095367432,-19.650001525878906
1770950139619473200,13.04247314453125,-17.0625,5.4375,-19.89375114440918
1770950139629473300,13.052473388671874,-16.78125,5.306250095367432,-20.700000762939453
1770950139639473200,13.06247314453125,-16.70625114440918,5.025000095367432,-20.868751525878906
1770950139649473300,13.072473388671876,-16.631250381469727,4.912500381469727,-20.850000381469727
1770950139659473200,13.08247314453125,-16.368751525878906,4.800000190734863,-20.625
1770950139669473300,13.092473388671875,-16.837501525878906,4.818750381469727,-20.306251525878906
1770950139679473200,13.10247314453125,-17.0625,4.78125,-20.193750381469727
1770950139689473300,13.112473388671875,-17.64375114440918,5.118750095367432,-19.668750762939453
1770950139699473200,13.12247314453125,-18.150001525878906,5.418750286102295,-18.975000381469727
1770950139709473300,13.132473388671874,-17.850000381469727,5.268750190734863,-18.84375
1770950139719473200,13.14247314453125,-17.83125114440918,5.512500286102295,-19.23750114440918
1770950139729473300,13.152473388671876,-18.037500381469727,5.662500381469727,-19.5
1770950139739473200,13.16247314453125,-18.243751525878906,6.075000286102295,-19.556251525878906
1770950139749473300,13.172473388671875,-18.243751525878906,6.318750381469727,-19.162500381469727
1770950139759473200,13.18247314453125,-17.981250762939453,6.637500286102295,-19.068750381469727
1770950139769473300,13.192473388671875,-17.887500762939453,7.031250476837158,-18.5625
1770950139779473200,13.20247314453125,-17.681251525878906,7.368750095367432,-18.375
1770950139789473300,13.212473388671874,-18.1875,7.650000095367432,-17.36250114440918
1770950139799473200,13.22247314453125,-18.48750114440918,7.762500286102295,-16.3125
1770950139809473300,13.232473388671876,-18.65625,7.931250095367432,-15.168750762939453
1770950139819473200,13.24247314453125,-18.9375,8.287500381469727,-14.175000190734863
1770950139829473300,13.252473388671875,-19.181251525878906,8.325000762939453,-13.612500190734863
1770950139839473200,13.26247314453125,-19.931251525878906,8.4375,-12.862500190734863
1770950139849473300,13.272473388671875,-19.80000114440918,8.25,-12.99375057220459
1770950139859473200,13.28247314453125,-20.25,8.15625,-12.862500190734863
1770950139869473300,13.292473388671874,-20.662500381469727,8.30625057220459,-12.637500762939453
1770950139879473200,13.30247314453125,-20.568750381469727,8.268750190734863,-12.693750381469727
1770950139889473300,13.312473388671876,-20.36250114440918,8.40000057220459,-12.637500762939453
1770950139899473200,13.32247314453125,-20.15625,7.987500190734863,-13.125000953674316
1770950139909473300,13.332473388671875,-20.25,7.931250095367432,-13.218750953674316
1770950139919473200,13.34247314453125,-19.96875,7.706250190734863,-13.387500762939453
