time,seconds_elapsed,z,y,x
1770950126802473200,0.22547314453125,11.542976379394531,3.2542388439178467,-5.517848968505859
1770950126821442600,0.244442626953125,10.657631874084473,4.043870449066162,-5.034498691558838
1770950126840412200,0.263412109375,8.752944946289062,5.886343479156494,-3.651447296142578
1770950126859381800,0.2823818359375,9.025727272033691,6.570691108703613,-2.304288148880005
1770950126878351000,0.30135107421875,10.999805450439453,5.934200286865234,-1.5553346872329712
1770950126897320700,0.32032080078125,12.167503356933594,5.010570526123047,-0.5575276613235474
1770950126916290300,0.339290283203125,12.54556941986084,4.340580463409424,0.2105683982372284
1770950126935259600,0.358259765625,11.665010452270508,3.7423746585845947,0.47617170214653015
1770950126954229200,0.377229248046875,9.875179290771484,3.304488182067871,0.2727817893028259
1770950126973198800,0.39619873046875,8.571090698242188,3.091526746749878,0.16749759018421173
1770950126992168200,0.415168212890625,7.144968509674072,3.1130621433258057,0.2727817893028259
1770950127011137800,0.4341376953125,5.821737289428711,3.5126636028289795,0.5551348328590393
1770950127030107400,0.453107421875,5.412564754486084,4.029513359069824,0.8733802437782288
1770950127049076700,0.47207666015625,5.931807518005371,4.405186653137207,1.0791629552841187
1770950127068046300,0.49104638671875,6.58265495300293,4.639683246612549,1.373480200767517
1770950127087016000,0.510015869140625,7.18086051940918,4.962714195251465,1.2179467678070068
1770950127105985300,0.5289853515625,8.784051895141602,5.400600910186768,0.13878370821475983
1770950127124955000,0.547954833984375,9.667003631591797,6.092126369476318,-0.33020952343940735
1770950127143924500,0.566924560546875,10.928021430969238,6.6592254638671875,-0.10049854964017868
1770950127162893800,0.585893798828125,12.983455657958984,5.642275810241699,-0.1986042857170105
1770950127181863400,0.604863525390625,15.177674293518066,3.029313564300537,-0.5934200286865234
1770950127200833000,0.6238330078125,15.584453582763672,0.8350951075553894,-1.0049854516983032
1770950127219802600,0.642802734375,14.500505447387695,-0.007178467698395252,-1.0887342691421509
1770950127238772000,0.66177197265625,12.753745079040527,1.679761528968811,-1.2969099283218384
1770950127257741600,0.680741455078125,10.092926025390625,4.094119548797607,-0.2847459018230438
1770950127276711200,0.699711181640625,7.800601959228516,5.718846321105957,0.7345965504646301
1770950127295680800,0.7186806640625,6.374479293823242,6.415157318115234,1.337587833404541
1770950127314650000,0.737650146484375,5.974878311157227,6.096911907196045,1.2275179624557495
1770950127333619700,0.75661962890625,6.025127410888672,4.828716278076172,1.0001999139785767
1770950127352589300,0.77558935546875,6.4319071769714355,3.85483717918396,-0.03349951654672623
1770950127371558700,0.79455859375,6.56829833984375,3.160918712615967,-0.5790630578994751
1770950127390528300,0.8135283203125,6.295516490936279,2.9790642261505127,-1.031306505203247
1770950127409497900,0.832497802734375,5.577669620513916,3.1680972576141357,-1.2299108505249023
1770950127428467500,0.851467529296875,5.0703911781311035,3.572484254837036,-1.31365966796875
1770950127447436800,0.870436767578125,5.1876397132873535,4.130012035369873,-1.3208380937576294
1770950127466406400,0.889406494140625,5.714060306549072,4.778466701507568,-1.4811571836471558
1770950127485376000,0.9083759765625,6.728617191314697,5.355136871337891,-1.5385849475860596
1770950127504345300,0.927345458984375,8.023134231567383,5.675775527954102,-1.332802176475525
1770950127523315000,0.94631494140625,9.753145217895508,5.661418437957764,-0.9403793215751648
1770950127542284500,0.965284423828125,10.77248764038086,5.436492919921875,-1.0719845294952393
1770950127561254100,0.984254150390625,10.52363395690918,5.175675392150879,-1.674975872039795
1770950127580223500,1.003223388671875,9.810572624206543,5.149354457855225,-2.3306093215942383
1770950127599193000,1.022193115234375,9.719645500183105,5.249852657318115,-2.493321180343628
1770950127618162700,1.04116259765625,10.411170959472656,5.606383323669434,-2.8737800121307373
1770950127637132300,1.06013232421875,10.643275260925293,6.075376510620117,-2.8211379051208496
1770950127656102000,1.079101806640625,10.973484992980957,6.477370738983154,-1.9166508913040161
1770950127684556000,1.10755615234375,11.84447193145752,5.663811206817627,-1.3280165195465088
1770950127703525600,1.126525634765625,12.021540641784668,4.3788652420043945,-2.667997360229492
1770950127722495200,1.1454951171875,10.827522277832031,3.7256247997283936,-3.486342668533325
1770950127741464800,1.16446484375,9.346364974975586,4.340580463409424,-2.9623143672943115
1770950127760434200,1.18343408203125,8.365307807922363,5.402993679046631,-1.6199408769607544
1770950127779403800,1.20240380859375,8.037490844726562,5.776273727416992,-0.37088751792907715
1770950127798373400,1.221373291015625,8.23130989074707,4.989035129547119,-0.014356935396790504
1770950127817343000,1.240343017578125,8.14516830444336,3.8021950721740723,-0.3278166949748993
1770950127836312300,1.259312255859375,7.609176158905029,2.9790642261505127,-0.6484549641609192
1770950127855282000,1.278281982421875,6.620940208435059,2.706282377243042,-0.6269195079803467
1770950127874251500,1.29725146484375,5.828916072845459,2.940778970718384,-0.49292147159576416
1770950127893221000,1.31622119140625,5.292923450469971,3.25663161277771,-0.5814558863639832
1770950127912190500,1.3351904296875,4.965106964111328,3.2997024059295654,-1.1365907192230225
1770950127931160000,1.35416015625,5.142175674438477,3.211168050765991,-1.5290136337280273
1770950127950129700,1.373129638671875,5.98444938659668,3.500699520111084,-1.2945170402526855
1770950127969099300,1.392099365234375,6.884150981903076,4.225724697113037,-0.6484549641609192
1770950127988068900,1.41106884765625,7.585247993469238,4.9363932609558105,-0.13639089465141296
1770950128007038500,1.43003857421875,8.09252643585205,5.3934221267700195,-0.04546362906694412
1770950128026007800,1.4490078125,8.307880401611328,5.491528034210205,-0.3445664644241333
1770950128044977400,1.467977294921875,8.547162055969238,5.489135265350342,-0.914058268070221
1770950128063947000,1.486947021484375,9.011369705200195,5.513063430786133,-1.0169496536254883
1770950128082916600,1.50591650390625,9.45882797241211,5.560919761657715,-0.7992027401924133
1770950128101886200,1.52488623046875,10.092926025390625,5.560919761657715,-0.5838487148284912
1770950128120855600,1.54385546875,10.877771377563477,5.72841739654541,-0.20578274130821228
1770950128139825200,1.5628251953125,11.461620330810547,6.221338748931885,0.009571290574967861
1770950128158794800,1.581794677734375,11.420942306518555,6.6831536293029785,0.6508477330207825
1770950128177764400,1.600764404296875,10.841879844665527,6.735795974731445,1.4763715267181396
1770950128196734000,1.61973388671875,10.899307250976562,5.998806476593018,1.5649060010910034
1770950128215703300,1.638703369140625,11.964113235473633,4.417150497436523,1.0360921621322632
1770950128234673000,1.6576728515625,12.720245361328125,3.2231321334838867,0.6508477330207825
1770950128253642500,1.676642578125,11.832508087158203,3.0029923915863037,0.5647061467170715
1770950128272612000,1.695612060546875,9.80100154876709,3.665804386138916,0.5359922647476196
1770950128291581700,1.714581787109375,8.535198211669922,4.144368648529053,0.8111668825149536
1770950128310551300,1.73355126953125,8.193024635314941,4.1491546630859375,1.129412293434143
1770950128329521000,1.75252099609375,8.09252643585205,4.058227062225342,1.2251251935958862
1770950128348490200,1.771490234375,7.9657063484191895,3.8261234760284424,1.031306505203247
1770950128367459800,1.7904599609375,7.377072334289551,3.5054850578308105,0.40677985548973083
1770950128386429400,1.809429443359375,6.508477687835693,3.397808074951172,-0.016749758273363113
1770950128405399000,1.82839892578125,6.027520179748535,3.6155550479888916,0.0023928226437419653
1770950128424368600,1.84736865234375,5.893522262573242,4.082155227661133,0.3206382393836975
1770950128443338000,1.866337890625,5.867201328277588,4.460221290588379,0.31345975399017334
1770950128462307600,1.8853076171875,5.855237007141113,4.48414945602417,-0.09571290761232376
1770950128481277200,1.904277099609375,5.955735683441162,4.467400074005127,-0.5934200286865234
1770950128500246800,1.923246826171875,6.223731517791748,4.563112735748291,-1.038485050201416
1770950128519216400,1.94221630859375,6.6113691329956055,4.797609329223633,-1.423729419708252
1770950128538186000,1.96118603515625,6.809973239898682,5.123033046722412,-1.3782658576965332
1770950128557155600,1.980155517578125,7.089933395385742,5.517848968505859,-1.155733346939087
1770950128576125000,1.999125,7.613961696624756,5.819344520568848,-1.160519003868103
1770950128595094500,2.018094482421875,8.051848411560059,5.9676995277404785,-1.2179467678070068
1770950128614064000,2.037064208984375,8.389236450195312,6.099305152893066,-1.3280165195465088
1770950128633033700,2.05603369140625,8.798408508300781,6.16391134262085,-1.2011969089508057
1770950128652003300,2.07500341796875,9.906285285949707,6.348158359527588,-1.3088740110397339
1770950128670973000,2.093972900390625,10.64088249206543,6.654439926147461,-1.5194423198699951
1770950128689942500,2.112942626953125,10.061819076538086,7.022934436798096,-1.8352949619293213
1770950128708912000,2.131912109375,9.391828536987305,6.989434719085693,-2.4358935356140137
1770950128727881500,2.150881591796875,9.45164966583252,5.85284423828125,-2.9455647468566895
1770950128746851000,2.16985107421875,10.604990005493164,4.1036906242370605,-4.106083869934082
1770950128765820700,2.188820556640625,10.985448837280273,2.66560435295105,-5.1876397132873535
1770950128784790300,2.207790283203125,10.382457733154297,2.383251428604126,-4.922036170959473
1770950128803759900,2.226759765625,9.667003631591797,3.3308091163635254,-3.239881753921509
1770950128822729200,2.245729248046875,8.94676399230957,4.285545349121094,-1.5314065217971802
1770950128841698800,2.26469873046875,8.322237014770508,4.646861553192139,-0.3397808074951172
1770950128860668400,2.28366845703125,8.094919204711914,4.29033088684082,0.23210379481315613
1770950128879638000,2.302637939453125,8.394021987915039,3.6993038654327393,0.04785645380616188
1770950128898607600,2.321607666015625,8.061419486999512,3.2997024059295654,-0.4618147611618042
1770950128917577200,2.3405771484375,7.046862602233887,3.2781670093536377,-1.0648061037063599
1770950128936546800,2.359546875,5.726024627685547,3.6442689895629883,-1.5361921787261963
1770950128955516400,2.378516357421875,4.967499732971191,4.043870449066162,-2.038684844970703
1770950128974485800,2.39748583984375,5.422136306762695,4.393222332000732,-2.4526431560516357
1770950128993455400,2.416455322265625,6.180660724639893,4.625326156616211,-2.423929452896118
1770950129012425000,2.435425048828125,6.936792850494385,4.989035129547119,-2.304288148880005
1770950129031394600,2.45439453125,7.216753005981445,5.352744102478027,-2.390429735183716
1770950129050364200,2.4733642578125,7.4225358963012695,5.565705299377441,-2.799602508544922
1770950129069333800,2.492333740234375,7.613961696624756,5.568098068237305,-3.483949661254883
1770950129088303400,2.511303466796875,7.750352382659912,5.292923450469971,-3.8500516414642334
1770950129107273000,2.53027294921875,8.475378036499023,5.245067119598389,-3.7782669067382812
1770950129126242600,2.54924267578125,9.556933403015137,5.391029357910156,-3.2709884643554688
1770950129145212000,2.5682119140625,10.236495018005371,5.553741455078125,-2.5148565769195557
1770950129164181500,2.587181396484375,10.482955932617188,5.694917678833008,-1.667797327041626
1770950129183151000,2.606151123046875,10.669595718383789,5.72123908996582,-0.9212366938591003
1770950129202120700,2.62512060546875,11.344371795654297,5.625525951385498,-0.2727817893028259
1770950129221090300,2.64409033203125,11.887542724609375,5.687739372253418,0.28953152894973755
1770950129240060000,2.663059814453125,11.758330345153809,6.104090690612793,0.7824530005455017
1770950129259029200,2.682029296875,11.050054550170898,6.180660724639893,1.3663017749786377
1770950129277998800,2.700998779296875,10.078569412231445,5.481956481933594,1.3878371715545654
1770950129296968400,2.719968505859375,9.863214492797852,3.6777684688568115,0.6317051649093628
1770950129315938000,2.73893798828125,9.731609344482422,2.0506489276885986,-0.3924229145050049
1770950129334907600,2.75790771484375,8.726624488830566,1.5912270545959473,-0.9475577473640442
1770950129353877200,2.776877197265625,6.9344000816345215,2.651247501373291,-0.6532405614852905
1770950129372846600,2.7958466796875,5.838487148284912,3.895515203475952,-0.3038884699344635
1770950129391816200,2.814816162109375,5.979663848876953,4.252045631408691,-0.0526420995593071
1770950129410785800,2.833785888671875,6.300302028656006,4.139583110809326,0.07417750358581543
1770950129429755400,2.85275537109375,6.491727828979492,4.130012035369873,-0.06699903309345245
1770950129448725000,2.87172509765625,6.836294174194336,4.182653903961182,-0.2919243574142456
1770950129467694600,2.890694580078125,6.898507595062256,4.139583110809326,-0.8638089895248413
1770950129486664200,2.909664306640625,6.300302028656006,4.019941806793213,-1.557727575302124
1770950129505633800,2.9286337890625,5.773880958557129,3.9625144004821777,-2.100898265838623
1770950129524603400,2.947603271484375,5.458028316497803,4.098905086517334,-2.6081767082214355
1770950129543572700,2.96657275390625,5.577669620513916,4.3788652420043945,-3.0173492431640625
1770950129562542300,2.985542236328125,5.994020938873291,4.618147850036621,-3.239881753921509
1770950129581512000,3.004511962890625,6.711867332458496,4.852644443511963,-3.1920254230499268
1770950129600481500,3.0234814453125,7.853243827819824,5.099104881286621,-2.9312076568603516
1770950129619451100,3.042451171875,8.74337387084961,5.319244861602783,-2.9001009464263916
1770950129638420700,3.061420654296875,8.95394229888916,5.443671703338623,-3.0891339778900146
1770950129657390000,3.08039013671875,8.793622970581055,5.582455158233643,-3.328416347503662
1770950129676359700,3.099359619140625,9.30329418182373,5.687739372253418,-3.5341989994049072
1770950129695329300,3.118329345703125,10.332208633422852,5.412564754486084,-3.6873397827148438
1770950129714299000,3.137298828125,11.475976943969727,4.991427898406982,-3.82373046875
1770950129733268500,3.1562685546875,12.835101127624512,4.922036170959473,-3.845266103744507
1770950129752238000,3.175238037109375,11.868400573730469,5.6207404136657715,-3.452843189239502
1770950129771207400,3.19420751953125,10.698309898376465,6.410371780395508,-3.1202406883239746
1770950129790177000,3.213177001953125,10.628918647766113,6.427121639251709,-3.043670415878296
1770950129809146600,3.232146728515625,10.698309898376465,5.412564754486084,-3.538984775543213
1770950129828116200,3.2511162109375,10.691131591796875,4.051048755645752,-4.0558342933654785
1770950129847085800,3.2700859375,10.700702667236328,3.2781670093536377,-4.266402721405029
1770950129866055400,3.289055419921875,10.50209903717041,3.1250264644622803,-3.7495529651641846
1770950129885024800,3.308024658203125,10.28195858001709,3.19441819190979,-2.392822742462158
1770950129903994400,3.326994384765625,9.827322959899902,3.4672000408172607,-0.7800601720809937
1770950129922964000,3.3459638671875,9.166903495788574,3.586841106414795,0.13639089465141296
1770950129941933600,3.36493359375,8.15234661102295,3.3547372817993164,0.32303106784820557
1770950129960903200,3.383903076171875,7.008577346801758,3.036491870880127,0.1052841991186142
1770950129979872800,3.402872802734375,6.226124286651611,2.864208698272705,-0.3852444589138031
1770950129998842000,3.421842041015625,5.60399055480957,2.823530673980713,-0.885344386100769
1770950130017811700,3.440811767578125,5.032105922698975,3.0101709365844727,-1.0671988725662231
1770950130036781300,3.45978125,4.790431022644043,3.5030922889709473,-0.9954141974449158
1770950130055751000,3.4787509765625,4.718646049499512,4.086941242218018,-0.8087740540504456
1770950130074720300,3.49772021484375,4.792823791503906,4.689932346343994,-0.4211367964744568
1770950130093689900,3.51668994140625,5.26899528503418,5.149354457855225,-0.2919243574142456
1770950130112659500,3.535659423828125,6.338587284088135,5.245067119598389,-0.4713860750198364
1770950130131629000,3.554629150390625,7.635497093200684,5.036891460418701,-0.8709874153137207
1770950130150598700,3.5735986328125,8.508877754211426,4.828716278076172,-1.4691931009292603
1770950130169568300,3.592568359375,9.073583602905273,4.862215518951416,-1.7156537771224976
1770950130188537600,3.61153759765625,9.745966911315918,4.972285270690918,-1.5290136337280273
1770950130207507200,3.630507080078125,10.401599884033203,5.13021183013916,-1.2251251935958862
1770950130226476800,3.649476806640625,10.84427261352539,5.185246467590332,-1.007378339767456
1770950130245446400,3.6684462890625,10.925628662109375,5.5968122482299805,-1.1581261157989502
1770950130264416000,3.687416015625,11.212766647338867,6.175875186920166,-0.8446664214134216
1770950130283385300,3.70638525390625,12.107682228088379,6.733402729034424,-0.45224347710609436
1770950130302355000,3.72535498046875,12.430713653564453,6.020341873168945,0.07896314561367035
1770950130321324500,3.744324462890625,12.964313507080078,3.988835334777832,-0.2153540402650833
1770950130340294000,3.7632939453125,13.000205039978027,2.282752752304077,-1.3639088869094849
1770950130359263500,3.782263427734375,12.492926597595215,1.0552347898483276,-1.832902193069458
1770950130378233000,3.801233154296875,11.20080280303955,2.007578134536743,-1.8233308792114258
1770950130397202700,3.82020263671875,9.116654396057129,3.82373046875,-0.5216353535652161
1770950130416172000,3.839172119140625,7.499105930328369,5.223531723022461,0.4043870270252228
1770950130435141600,3.8581416015625,6.283552169799805,5.855237007141113,0.882951557636261
1770950130454111200,3.877111328125,5.656632900238037,5.776273727416992,0.49292147159576416
1770950130473080800,3.896080810546875,5.338387489318848,5.065605640411377,-0.2847459018230438
1770950130492050200,3.91505029296875,5.027320384979248,4.156332969665527,-1.124626636505127
1770950130511019800,3.934019775390625,4.833501815795898,3.38105845451355,-1.7635103464126587
1770950130529989400,3.9529892578125,4.835894584655762,3.115455150604248,-2.0003998279571533
1770950130548959000,3.971958984375,5.1565327644348145,3.335594654083252,-1.9070796966552734
1770950130567928300,3.99092822265625,5.735595703125,3.8500516414642334,-1.612762451171875
1770950130586898000,4.00989794921875,6.235695838928223,4.40757942199707,-1.4069796800613403
1770950130605867500,4.028867431640625,6.927221775054932,4.895715236663818,-1.430907964706421
1770950130624837000,4.047837158203125,7.77188777923584,5.077569484710693,-1.6701902151107788
1770950130643806500,4.066806396484375,8.24566650390625,5.010570526123047,-2.2779672145843506
1770950130662776000,4.085776123046875,8.49452018737793,4.945964336395264,-2.9216363430023193
1770950130681745700,4.10474560546875,8.528019905090332,5.13739013671875,-3.2374889850616455
1770950130700715000,4.123715087890625,8.95394229888916,5.429314613342285,-3.4983067512512207
1770950130719684600,4.1426845703125,9.422935485839844,5.587240695953369,-3.6155550479888916
1770950130738654200,4.161654296875,9.832108497619629,5.8097734451293945,-3.8524444103240967
1770950130757623600,4.18062353515625,10.370492935180664,6.125626087188721,-4.01754903793335
1770950130776593200,4.19959326171875,11.119446754455566,6.372086524963379,-3.759124279022217
1770950130795562800,4.218562744140625,12.234501838684082,6.472585201263428,-3.1968109607696533
1770950130814532400,4.237532470703125,12.91645622253418,5.776273727416992,-2.8929226398468018
1770950130833501700,4.256501708984375,13.481163024902344,4.287938117980957,-3.445664644241333
1770950130852471300,4.27547119140625,11.875578880310059,3.1728827953338623,-4.386044025421143
1770950130871440600,4.294440673828125,9.047262191772461,3.610769271850586,-4.6372904777526855
1770950130890410200,4.31341015625,7.654639720916748,4.713860511779785,-3.5270206928253174
1770950130909379800,4.3323798828125,8.403593063354492,5.103890895843506,-1.789831280708313
1770950130928349200,4.35134912109375,9.822537422180176,4.264009952545166,-0.7250252366065979
1770950130956803600,4.379803466796875,8.803194046020508,3.077169895172119,-0.7369893789291382
1770950130975773200,4.398773193359375,6.7070817947387695,2.9599215984344482,-0.8398807644844055
1770950130994742500,4.417742431640625,5.029713153839111,3.239881753921509,-0.7345965504646301
1770950131013712100,4.436712158203125,4.043870449066162,3.6299118995666504,-0.6460621356964111
1770950131032681500,4.455681396484375,3.7567315101623535,3.7543387413024902,-0.8614161610603333
1770950131051651000,4.474651123046875,3.830909013748169,3.7160534858703613,-1.124626636505127
1770950131070620700,4.49362060546875,4.46979284286499,3.735196113586426,-1.373480200767517
1770950131089590000,4.512590087890625,5.532206058502197,4.048655986785889,-1.423729419708252
1770950131108559600,4.5315595703125,6.214160442352295,4.541577339172363,-1.4117653369903564
1770950131127529000,4.550529052734375,6.400800704956055,5.01296329498291,-1.4620146751403809
1770950131146498600,4.56949853515625,6.7932233810424805,5.283352375030518,-1.6869399547576904
1770950131165468000,4.588468017578125,7.738388538360596,5.340780258178711,-1.9669002294540405
1770950131184437500,4.6074375,8.48734188079834,5.304887771606445,-2.510071039199829
1770950131203407000,4.626406982421875,8.879764556884766,5.359922885894775,-3.0484559535980225
1770950131222376400,4.64537646484375,9.231510162353516,5.5106706619262695,-3.1680972576141357
1770950131241346000,4.664345947265625,10.059426307678223,5.697310924530029,-2.8833513259887695
1770950131260315400,4.6833154296875,10.631311416625977,5.670989513397217,-2.462214469909668
1770950131279285000,4.702284912109375,11.124232292175293,5.553741455078125,-2.510071039199829
1770950131298254300,4.72125439453125,11.736795425415039,5.446064472198486,-2.6273193359375
1770950131317224000,4.740223876953125,12.083754539489746,5.491528034210205,-2.2995026111602783
1770950131336193300,4.759193359375,11.710474014282227,5.752345561981201,-1.8999011516571045
1770950131355163000,4.778162841796875,10.995019912719727,5.225924491882324,-1.0552347898483276
1770950131374132200,4.79713232421875,10.849058151245117,3.90987229347229,-1.0959128141403198
1770950131393101800,4.816101806640625,10.329814910888672,2.4717857837677,-1.710868239402771
1770950131412071200,4.8350712890625,9.116654396057129,1.9381862878799438,-2.0650060176849365
1770950131431040800,4.854040771484375,7.467999458312988,2.8043880462646484,-1.674975872039795
1770950131450010400,4.87301025390625,6.857829570770264,4.067798614501953,-0.5934200286865234
1770950131468979700,4.891979736328125,7.491927623748779,4.78803825378418,0.16031911969184875
1770950131487949300,4.91094921875,8.23130989074707,4.639683246612549,0.064606212079525
1770950131506918700,4.929918701171875,8.135597229003906,4.060619831085205,-0.7369893789291382
1770950131525888300,4.94888818359375,7.393822193145752,3.620340585708618,-1.5433706045150757
1770950131544857600,4.967857666015625,6.697510719299316,3.445664644241333,-1.8831514120101929
1770950131563827200,4.9868271484375,6.106483459472656,3.5030922889709473,-1.9597218036651611
1770950131582796500,5.005796630859375,5.687739372253418,3.6155550479888916,-1.828116536140442
1770950131601766000,5.024765869140625,5.469992637634277,3.7639100551605225,-1.832902193069458
1770950131620735500,5.043735595703125,5.4173502922058105,3.9218363761901855,-1.820937991142273
1770950131639704800,5.062704833984375,5.647061347961426,4.302295207977295,-1.7132610082626343
1770950131658674400,5.08167431640625,6.087340831756592,4.701896667480469,-1.7180466651916504
1770950131677643800,5.100643798828125,6.687939167022705,4.984249591827393,-1.8376877307891846
1770950131696613400,5.11961328125,7.283751964569092,5.173282623291016,-2.1583259105682373
1770950131715582700,5.138582763671875,7.5708909034729,5.264209747314453,-2.7278177738189697
1770950131734552300,5.15755224609375,7.712067604064941,5.237888813018799,-3.1417760848999023
1770950131753521700,5.176521728515625,8.48734188079834,5.278566837310791,-3.6131622791290283
1770950131772491000,5.195490966796875,10.107282638549805,5.01296329498291,-3.6634113788604736
1770950131791460600,5.214460693359375,12.569497108459473,4.575077056884766,-3.9768712520599365
1770950131810430000,5.233429931640625,13.691731452941895,4.47697114944458,-4.347758769989014
1770950131829399600,5.252399658203125,12.710674285888672,5.113461971282959,-4.7952165603637695
1770950131848369000,5.271368896484375,11.85165023803711,6.151947021484375,-4.584648132324219
1770950131867338500,5.29033837890625,13.562519073486328,5.749952793121338,-3.8213376998901367
1770950131886307800,5.309307861328125,14.876178741455078,3.4815568923950195,-3.641875982284546
1770950131905277200,5.328277099609375,13.76351547241211,1.8544375896453857,-4.280759811401367
1770950131924246800,5.347246826171875,10.853843688964844,2.1511476039886475,-4.273581027984619
1770950131943216000,5.366216064453125,9.09990406036377,3.10109806060791,-2.6608188152313232
1770950131962185500,5.385185546875,9.087940216064453,3.6945180892944336,-0.9475577473640442
1770950131981154800,5.40415478515625,8.83669376373291,3.680161237716675,-0.18424734473228455
1770950132000124400,5.42312451171875,7.69531774520874,3.187239646911621,-0.04307080805301666
1770950132019094000,5.442093994140625,6.69990348815918,2.7038896083831787,-0.5264210104942322
1770950132038063000,5.46106298828125,6.029912948608398,2.311466693878174,-1.00259268283844
1770950132057032700,5.48003271484375,5.501099109649658,2.0315065383911133,-1.423729419708252
1770950132076002000,5.499001953125,5.041677474975586,2.256431818008423,-1.6175481081008911
1770950132094971600,5.5179716796875,4.622933387756348,2.691925525665283,-1.588834285736084
1770950132113941000,5.53694091796875,4.491328239440918,3.239881753921509,-1.4476577043533325
1770950132132910300,5.555910400390625,4.8574299812316895,3.7974095344543457,-1.3471591472625732
1770950132151880000,5.5748798828125,5.587240695953369,4.299902439117432,-1.1198409795761108
1770950132170849300,5.593849365234375,6.857829570770264,4.627718925476074,-0.8542376756668091
1770950132189818600,5.612818603515625,8.219346046447754,4.575077056884766,-0.9260223507881165
1770950132208788200,5.631788330078125,8.848658561706543,4.53200626373291,-1.3160524368286133
1770950132227757600,5.650757568359375,8.133204460144043,4.8574299812316895,-1.9286150932312012
1770950132246727000,5.669726806640625,7.623532772064209,5.357530117034912,-2.1774685382843018
1770950132265696500,5.688696533203125,8.22413158416748,5.9198431968688965,-1.9310078620910645
1770950132284665900,5.707665771484375,9.812965393066406,6.0610198974609375,-1.3088740110397339
1770950132303635200,5.72663525390625,11.899506568908691,5.769095420837402,-0.9930213689804077
1770950132322604500,5.7456044921875,13.227523803710938,5.257031440734863,-1.3615161180496216
1770950132341574000,5.764573974609375,13.706088066101074,4.986642360687256,-1.3280165195465088
1770950132360543500,5.78354345703125,13.74198055267334,5.4867424964904785,-1.3878371715545654
1770950132379512800,5.802512939453125,12.746565818786621,5.453242778778076,-1.069591760635376
1770950132398482200,5.821482177734375,12.124432563781738,4.242474555969238,-0.9379864931106567
1770950132417451500,5.840451416015625,12.198610305786133,2.6297121047973633,-1.4189438819885254
1770950132436420900,5.8594208984375,11.94736385345459,1.5744773149490356,-1.6701902151107788
1770950132455390500,5.878390380859375,10.961520195007324,1.7443677186965942,-1.5744773149490356
1770950132474359800,5.89735986328125,9.17886734008789,2.967100143432617,-0.7585247755050659
1770950132493329200,5.9163291015625,7.609176158905029,4.268795490264893,0.05024927482008934
1770950132512298500,5.935298583984375,6.6113691329956055,4.783252239227295,0.2392822653055191
1770950132531267800,5.954267822265625,5.982056617736816,4.357329845428467,-0.2847459018230438
1770950132550237400,5.973237548828125,5.37906551361084,3.689732551574707,-0.9643075466156006
1770950132569206800,5.992206787109375,5.178068161010742,3.3068809509277344,-1.4979069232940674
1770950132588176100,6.011176025390625,5.285745143890381,3.0795626640319824,-1.8616160154342651
1770950132607145500,6.0301455078125,5.178068161010742,3.16331148147583,-2.091326951980591
1770950132626114800,6.04911474609375,4.996213912963867,3.4337005615234375,-2.2205393314361572
1770950132645084400,6.06808447265625,5.26181697845459,3.8596229553222656,-2.234896421432495
1770950132664053800,6.0870537109375,5.946164131164551,4.311866283416748,-2.139183521270752
1770950132683023000,6.106023193359375,6.941578388214111,4.553541660308838,-2.021935224533081
1770950132701992400,6.124992431640625,7.853243827819824,4.776073932647705,-1.9022940397262573
1770950132720961800,6.1439619140625,8.468199729919434,4.9435715675354,-2.1343977451324463
1770950132739931100,6.16293115234375,8.748159408569336,4.991427898406982,-2.526820659637451
1770950132758900500,6.181900390625,8.812766075134277,5.063212871551514,-2.933600664138794
1770950132777869800,6.200869873046875,9.035298347473145,5.2737812995910645,-3.0340991020202637
1770950132796839400,6.21983935546875,9.147761344909668,5.709274768829346,-3.25663161277771
1770950132815808800,6.238808837890625,9.616754531860352,5.84566593170166,-3.1800613403320312
1770950132834778000,6.257778076171875,11.234302520751953,5.706881999969482,-2.964707374572754
1770950132853747500,6.27674755859375,12.598211288452148,5.436492919921875,-2.3808584213256836
1770950132872716800,6.295716796875,13.483555793762207,5.446064472198486,-2.282752752304077
1770950132891686100,6.31468603515625,11.028519630432129,6.405586242675781,-2.9168508052825928
1770950132910655500,6.333655517578125,6.4079790115356445,8.630910873413086,-3.2709884643554688
1770950132929624800,6.352624755859375,6.118447303771973,10.226923942565918,-2.431107759475708
1770950132948594200,6.37159423828125,9.741181373596191,7.913064479827881,-1.2658032178878784
1770950132967563500,6.3905634765625,12.268001556396484,4.8813581466674805,-1.8161523342132568
1770950132986532900,6.409532958984375,11.212766647338867,3.4025938510894775,-3.4265220165252686
1770950133005502200,6.428502197265625,9.844072341918945,3.005385160446167,-3.656233072280884
1770950133024471600,6.447471435546875,10.363314628601074,3.239881753921509,-2.524427890777588
1770950133043441000,6.46644091796875,10.423135757446289,3.2303106784820557,-1.4476577043533325
1770950133062410200,6.48541015625,8.987442016601562,2.895315408706665,-1.1868400573730469
1770950133081379600,6.504379638671875,6.939185619354248,2.770888566970825,-1.057627558708191
1770950133100349000,6.523348876953125,5.5968122482299805,3.06999135017395,-0.7776673436164856
1770950133119318300,6.542318359375,5.338387489318848,3.4815568923950195,-0.8446664214134216
1770950133138287600,6.56128759765625,5.3934221267700195,3.4552359580993652,-1.2394821643829346
1770950133157257000,6.580257080078125,5.19960355758667,3.160918712615967,-1.3519448041915894
1770950133176226300,6.599226318359375,5.469992637634277,3.4719855785369873,-1.2299108505249023
1770950133195195600,6.618195556640625,6.072983741760254,3.84765887260437,-1.2035897970199585
1770950133214165000,6.6371650390625,6.616154670715332,3.864408493041992,-1.1629117727279663
1770950133233134300,6.65613427734375,6.795616149902344,4.000799655914307,-1.0767701864242554
1770950133252103700,6.675103759765625,6.647261142730713,4.493721008300781,-1.3710874319076538
1770950133271073000,6.694072998046875,6.826723098754883,4.945964336395264,-1.8041882514953613
1770950133290042400,6.71304248046875,7.300501823425293,5.4173502922058105,-2.148754835128784
1770950133309011700,6.73201171875,7.795815944671631,5.824130535125732,-2.2707886695861816
1770950133327981000,6.75098095703125,8.863015174865723,5.843272686004639,-2.280359983444214
1770950133346950100,6.7699501953125,10.415956497192383,5.6925249099731445,-2.196611166000366
1770950133365919700,6.788919677734375,11.72004508972168,5.848058700561523,-1.1509476900100708
1770950133384888800,6.807888916015625,12.531211853027344,6.281159400939941,-0.12921242415905
1770950133403858200,6.826858154296875,13.306487083435059,5.149354457855225,-0.9044869542121887
1770950133422827500,6.84582763671875,13.658231735229492,2.8426733016967773,-3.1106693744659424
1770950133441796900,6.864796875,12.074183464050293,1.057627558708191,-4.275974273681641
1770950133460766200,6.88376611328125,11.411371231079102,0.8662018179893494,-3.8739798069000244
1770950133479735600,6.902735595703125,12.540783882141113,2.0721843242645264,-2.2205393314361572
1770950133498705000,6.921704833984375,12.863814353942871,3.407379388809204,-0.8590233325958252
1770950133517674000,6.940674072265625,10.786844253540039,4.34536600112915,-0.6604190468788147
1770950133536643600,6.9596435546875,8.260024070739746,4.223331928253174,-1.368694543838501
1770950133555612700,6.97861279296875,6.63769006729126,3.249453067779541,-2.3784656524658203
1770950133574582000,6.99758203125,6.151947021484375,2.2085752487182617,-3.211168050765991
1770950133593551400,7.01655126953125,6.03948450088501,1.6869399547576904,-2.988635540008545
1770950133612520700,7.035520751953125,5.891129493713379,1.923829436302185,-2.3258235454559326
1770950133631490000,7.054489990234375,5.434100151062012,2.7278177738189697,-1.5314065217971802
1770950133650459100,7.073459228515625,4.931607246398926,3.404986619949341,-1.1413763761520386
1770950133669428500,7.092428466796875,4.386044025421143,4.0797624588012695,-1.196411371231079
1770950133688397800,7.111397705078125,3.9936211109161377,4.831109046936035,-1.4644074440002441
1770950133707367200,7.1303671875,4.7234320640563965,5.429314613342285,-1.7228323221206665
1770950133726336500,7.14933642578125,6.209374904632568,5.678168296813965,-2.093719720840454
1770950133745305600,7.1683056640625,7.403393268585205,5.60399055480957,-2.2779672145843506
1770950133764275000,7.18727490234375,8.769695281982422,5.627918720245361,-2.6799614429473877
1770950133783244300,7.206244384765625,9.851250648498535,5.422136306762695,-3.16331148147583
1770950133802213400,7.22521337890625,10.437492370605469,5.240281581878662,-3.6777684688568115
1770950133821183000,7.244182861328125,11.164910316467285,5.039284706115723,-4.338187217712402
1770950133840152000,7.263152099609375,12.445070266723633,4.768895626068115,-4.874179840087891
1770950133859121400,7.282121337890625,13.287343978881836,4.984249591827393,-4.800002098083496
1770950133878090800,7.3010908203125,12.464213371276855,5.927021503448486,-3.6921253204345703
1770950133897059800,7.320059814453125,13.514662742614746,5.824130535125732,-2.2205393314361572
1770950133916029200,7.339029296875,14.560325622558594,4.2281174659729,-2.00518536567688
1770950133934998500,7.35799853515625,11.911471366882324,3.3403804302215576,-2.8139593601226807
1770950133953967900,7.3769677734375,8.595019340515137,4.101297855377197,-3.541377544403076
1770950133972937000,7.39593701171875,7.231110095977783,5.125426292419434,-2.847458839416504
1770950133991906300,7.41490625,8.008777618408203,5.19242525100708,-1.526620864868164
1770950134010875600,7.433875732421875,8.913264274597168,4.321437835693359,-0.9188438653945923
1770950134029844700,7.4528447265625,8.60459041595459,3.25663161277771,-1.0193424224853516
1770950134048814000,7.47181396484375,7.16650390625,2.242074728012085,-1.459621787071228
1770950134067783400,7.490783447265625,5.584847927093506,1.6295121908187866,-2.0482561588287354
1770950134086752800,7.509752685546875,4.292723655700684,1.3926228284835815,-2.579462766647339
1770950134105721900,7.528721923828125,3.565305709838867,1.466800332069397,-3.16331148147583
1770950134124691200,7.547691162109375,3.0652058124542236,1.4883357286453247,-3.5916268825531006
1770950134143660300,7.566660400390625,3.053241729736328,1.6893328428268433,-3.82373046875
1770950134162629600,7.585629638671875,3.4097721576690674,2.194218397140503,-3.8189449310302734
1770950134181599000,7.604598876953125,4.101297855377197,2.888136863708496,-3.493520975112915
1770950134200568000,7.623568115234375,5.414957523345947,3.6227335929870605,-2.6177480220794678
1770950134219537400,7.642537353515625,7.76470947265625,4.460221290588379,-1.6582261323928833
1770950134238506500,7.661506591796875,9.927821159362793,4.902893543243408,-1.0767701864242554
1770950134257475800,7.680475830078125,10.045069694519043,4.843072891235352,-1.7754744291305542
1770950134276445200,7.699445068359375,9.116654396057129,4.754538536071777,-2.964707374572754
1770950134295414500,7.71841455078125,9.377471923828125,4.711467742919922,-3.4265220165252686
1770950134314383600,7.737383544921875,11.143375396728516,4.429114818572998,-3.019742250442505
1770950134333353000,7.75635302734375,13.155738830566406,3.8428730964660645,-2.3712873458862305
1770950134352322000,7.775322021484375,14.096117973327637,3.4265220165252686,-1.6366907358169556
1770950134371291400,7.79429150390625,13.739587783813477,3.4169507026672363,-1.057627558708191
1770950134390260500,7.813260498046875,13.74915885925293,3.8213376998901367,-1.0911271572113037
1770950134409229800,7.832229736328125,13.543375968933105,3.3379876613616943,-1.1892328262329102
1770950134428199000,7.851198974609375,14.148759841918945,1.9812572002410889,-1.648654818534851
1770950134447168300,7.870168212890625,14.591432571411133,0.9499505758285522,-1.588834285736084
1770950134466137300,7.889137451171875,14.376078605651855,0.7752745151519775,-1.0001999139785767
1770950134485106700,7.908106689453125,13.579268455505371,1.2203395366668701,-0.349352091550827
1770950134504075800,7.92707568359375,11.918649673461914,1.7084753513336182,-0.13639089465141296
1770950134523045000,7.946045166015625,9.913464546203613,1.9980069398880005,-0.2512463629245758
1770950134542014200,7.96501416015625,7.817351341247559,2.1535403728485107,-0.638883650302887
1770950134560983600,7.983983642578125,6.221338748931885,2.139183521270752,-1.153340458869934
1770950134579952600,8.00295263671875,5.096712112426758,1.94297194480896,-1.5002998113632202
1770950134598922000,8.021921875,4.764110088348389,1.698904037475586,-1.7324036359786987
1770950134617891000,8.04089111328125,4.907679080963135,1.5744773149490356,-1.6821542978286743
1770950134636860400,8.0598603515625,5.06082010269165,1.674975872039795,-1.5864413976669312
1770950134655829500,8.07882958984375,4.945964336395264,2.0171494483947754,-1.5146567821502686
1770950134674798800,8.097798828125,4.855037212371826,2.6464617252349854,-1.4979069232940674
1770950134693768200,8.116768310546876,4.8502516746521,3.1657042503356934,-1.7060825824737549
1770950134712737300,8.1357373046875,5.154139995574951,3.6394832134246826,-2.0721843242645264
1770950134731706400,8.154706298828126,5.580062389373779,4.058227062225342,-2.4095723628997803
1770950134750675500,8.173675537109375,6.39601469039917,4.266402721405029,-2.8115665912628174
1770950134769644800,8.192644775390624,7.975277900695801,4.182653903961182,-3.352344512939453
1770950134788614000,8.21161376953125,9.827322959899902,3.8356947898864746,-3.6083765029907227
1770950134807583200,8.230583251953124,11.468798637390137,3.5437703132629395,-3.9696927070617676
1770950134826552300,8.24955224609375,13.095918655395508,3.2709884643554688,-4.60139799118042
1770950134845521700,8.268521728515625,14.139188766479492,3.036491870880127,-5.242674350738525
1770950134864490800,8.28749072265625,13.698909759521484,3.3475589752197266,-5.931807518005371
1770950134883459800,8.3064599609375,12.9954195022583,4.510470867156982,-5.412564754486084
1770950134902429200,8.32542919921875,13.701302528381348,5.565705299377441,-3.9792640209198
1770950134921398300,8.344398193359375,15.270994186401367,4.527220249176025,-2.5914268493652344
1770950134940367600,8.36336767578125,14.833107948303223,2.5435705184936523,-3.273381471633911
1770950134959336700,8.382336669921875,11.988041877746582,1.648654818534851,-4.376472473144531
1770950134978305800,8.401305908203126,9.016156196594238,1.9932212829589844,-4.338187217712402
1770950134997275100,8.420275146484375,8.126026153564453,3.046063184738159,-2.768495798110962
1770950135016244200,8.439244140625,8.48016357421875,3.814159393310547,-1.0241280794143677
1770950135035213300,8.45821337890625,8.35573673248291,3.87876558303833,0.064606212079525
1770950135054182700,8.4771826171875,7.657032489776611,3.19441819190979,0.11964113265275955
1770950135073151700,8.49615185546875,6.721438884735107,2.3401806354522705,-0.41874396800994873
1770950135092120800,8.515120849609374,6.135197162628174,1.6079767942428589,-1.0049854516983032
1770950135111090000,8.53408984375,5.718846321105957,1.0863415002822876,-1.454836130142212
1770950135130059300,8.553059326171875,5.257031440734863,0.885344386100769,-2.0482561588287354
1770950135149028400,8.5720283203125,4.941178798675537,1.1222338676452637,-2.4263222217559814
1770950135167997400,8.59099755859375,4.273581027984619,1.8305093050003052,-2.4885356426239014
1770950135186966800,8.609966796875,4.453042984008789,2.6727828979492188,-2.4358935356140137
1770950135205935900,8.628935791015625,5.2115678787231445,3.4504501819610596,-2.2205393314361572
1770950135224905000,8.647905029296876,6.350551128387451,4.342973232269287,-2.1439690589904785
1770950135243874000,8.6668740234375,7.69531774520874,4.922036170959473,-2.115255117416382
1770950135262843400,8.685843505859374,9.332008361816406,4.900500774383545,-2.311466693878174
1770950135281812500,8.7048125,10.600204467773438,4.503292083740234,-2.4526431560516357
1770950135300781600,8.723781494140624,10.949556350708008,4.271188259124756,-2.2468605041503906
1770950135319750700,8.742750732421875,10.822736740112305,4.555934429168701,-2.155933141708374
1770950135338719700,8.7617197265625,10.619346618652344,4.718646049499512,-2.0506489276885986
1770950135357689000,8.780689208984375,11.069197654724121,4.610969066619873,-1.9956140518188477
1770950135376658200,8.799658203125,11.638689041137695,4.776073932647705,-2.3162522315979004
1770950135395627300,8.818627197265625,11.93779182434082,5.051248550415039,-1.9525432586669922
1770950135414596400,8.837596435546875,12.050254821777344,5.362315654754639,-1.4189438819885254
1770950135433565400,8.8565654296875,12.394821166992188,4.429114818572998,-1.1988041400909424
1770950135452534500,8.875534423828125,13.016955375671387,2.2851455211639404,-1.7443677186965942
1770950135471504000,8.89450390625,12.875778198242188,0.5862415432929993,-2.5363919734954834
1770950135490473000,8.913472900390625,11.631510734558105,-0.24885354936122894,-2.5435705184936523
1770950135509442000,8.932442138671876,10.643275260925293,0.1746760457754135,-1.8616160154342651
1770950135528411100,8.9514111328125,9.580862045288086,1.5792629718780518,-0.45942193269729614
1770950135547380200,8.970380126953126,8.350951194763184,2.9312076568603516,0.5383850932121277
1770950135566349300,8.989349365234375,6.896114826202393,3.6155550479888916,0.7226324677467346
1770950135585318400,9.008318359375,5.355136871337891,3.5772697925567627,0.23449662327766418
1770950135604287700,9.027287841796875,4.357329845428467,3.0245277881622314,-0.5551348328590393
1770950135623256800,9.0462568359375,4.098905086517334,2.4191436767578125,-1.3543375730514526
1770950135642226000,9.065225830078125,4.651647090911865,2.1535403728485107,-1.703689694404602
1770950135661195000,9.084195068359374,5.223531723022461,2.3497519493103027,-1.7012969255447388
1770950135680164000,9.1031640625,5.699703693389893,3.0269205570220947,-1.7395820617675781
1770950135699133200,9.12213330078125,5.458028316497803,3.682554006576538,-1.794616937637329
1770950135718102300,9.141102294921875,5.402993679046631,4.431507587432861,-2.012363910675049
1770950135737071400,9.1600712890625,5.9509501457214355,4.965106964111328,-2.4095723628997803
1770950135756040400,9.17904052734375,6.9583282470703125,5.0464630126953125,-2.5387847423553467
1770950135775009500,9.198009521484375,8.161917686462402,5.087141036987305,-2.620140790939331
1770950135793978600,9.216978515625,9.260223388671875,4.960321426391602,-3.0795626640319824
1770950135812947700,9.23594775390625,10.037891387939453,4.553541660308838,-3.735196113586426
1770950135831916800,9.254916748046876,10.013962745666504,4.242474555969238,-4.366901397705078
1770950135850886000,9.273885986328125,9.686145782470703,4.498506546020508,-4.876572608947754
1770950135869855000,9.29285498046875,9.475577354431152,5.314459323883057,-5.295316696166992
1770950135888824000,9.311823974609375,9.638289451599121,6.32662296295166,-5.438885688781738
1770950135907793200,9.330793212890624,10.375279426574707,6.8410797119140625,-5.106283664703369
1770950135926762200,9.34976220703125,12.741780281066895,6.424728870391846,-4.505684852600098
1770950135945731300,9.3687314453125,15.323636054992676,4.371686935424805,-3.981656789779663
1770950135964700400,9.387700439453125,15.742380142211914,2.139183521270752,-4.46979284286499
1770950135983669500,9.40666943359375,12.44267749786377,1.074377417564392,-5.438885688781738
1770950136002638600,9.425638671875,8.69791030883789,1.765903115272522,-5.4867424964904785
1770950136021607700,9.444607666015624,6.896114826202393,3.2039895057678223,-4.086941242218018
1770950136040576800,9.46357666015625,7.054041385650635,4.567898273468018,-2.00518536567688
1770950136059545900,9.4825458984375,7.69531774520874,4.957928657531738,-0.3684946894645691
1770950136078515000,9.501514892578125,8.23848819732666,4.689932346343994,0.2105683982372284
1770950136097484000,9.520484130859375,7.530212879180908,4.0079779624938965,-0.15074782073497772
1770950136116453000,9.539453125,6.690331935882568,3.3403804302215576,-0.6699903607368469
1770950136135422200,9.558422119140625,6.580262184143066,2.837887763977051,-1.2418749332427979
1770950136154391300,9.577391357421876,6.807580471038818,2.2540390491485596,-1.8903298377990723
1770950136173360000,9.596360107421875,6.44387149810791,1.770688772201538,-2.359323024749756
1770950136192329200,9.6153291015625,5.60399055480957,1.7204394340515137,-2.6392834186553955
1770950136211298300,9.63429833984375,5.091926574707031,2.115255117416382,-2.778067111968994
1770950136230267400,9.653267333984376,5.352744102478027,2.8354947566986084,-2.4430718421936035
1770950136249236500,9.672236572265625,6.283552169799805,3.689732551574707,-1.94297194480896
1770950136268205600,9.69120556640625,7.22871732711792,4.359723091125488,-1.6558332443237305
1770950136287174700,9.710174560546875,8.910871505737305,4.706682205200195,-1.6462619304656982
1770950136306143700,9.729143798828124,10.569097518920898,4.704289436340332,-1.9836499691009521
1770950136325112800,9.74811279296875,10.528419494628906,4.838287353515625,-2.400001049041748
1770950136344082000,9.76708203125,9.717252731323242,5.410171985626221,-2.4981069564819336
1770950136363050800,9.78605078125,10.236495018005371,6.111268997192383,-2.0985054969787598
1770950136382019800,9.805019775390624,11.380264282226562,6.530013084411621,-1.5074782371520996
1770950136400989000,9.823989013671875,12.198610305786133,6.0538411140441895,-1.7467604875564575
1770950136419958000,9.8429580078125,13.667802810668945,4.436293125152588,-2.610569477081299
1770950136438927000,9.861927001953125,13.395021438598633,3.5437703132629395,-2.421536445617676
1770950136457896200,9.880896240234375,10.762916564941406,5.711667537689209,-1.947757601737976
1770950136476865000,9.899864990234375,9.035298347473145,7.738388538360596,-2.1846470832824707
1770950136495834000,9.918834228515625,10.71984577178955,5.237888813018799,-0.9547362327575684
1770950136514803200,9.93780322265625,15.139389038085938,2.6608188152313232,-0.5264210104942322
1770950136533772300,9.956772216796875,16.28794288635254,0.7369893789291382,-0.5647061467170715
1770950136552741000,9.9757412109375,14.971891403198242,-0.23688943684101105,-0.5599204897880554
1770950136571710200,9.994710205078125,11.983255386352539,0.48574298620224,-0.21296121180057526
1770950136590679300,10.01367919921875,7.487142086029053,3.2279176712036133,-0.1818545162677765
1770950136609648400,10.0326484375,6.623332977294922,5.814558982849121,-0.004785645287483931
1770950136628617200,10.0516171875,6.941578388214111,4.902893543243408,0.6005984544754028
1770950136647586300,10.07058642578125,8.295916557312012,3.713660717010498,0.01196411345154047
1770950136666555400,10.089555419921876,9.049654960632324,3.201596736907959,-0.6819544434547424
1770950136685524500,10.1085244140625,9.006584167480469,2.9288148880004883,-1.093519926071167
1770950136704493300,10.127493408203126,8.063812255859375,2.8977081775665283,-1.3519448041915894
1770950136723462400,10.14646240234375,7.010970115661621,3.019742250442505,-1.4333007335662842
1770950136742431500,10.165431396484376,6.63051176071167,2.950350284576416,-1.576870083808899
1770950136761400600,10.184400634765625,6.429514408111572,2.4813570976257324,-1.7922241687774658
1770950136780369400,10.203369384765624,6.424728870391846,2.1583259105682373,-1.9621145725250244
1770950136799338500,10.22233837890625,5.888736724853516,2.455035924911499,-1.911865234375
1770950136818307600,10.2413076171875,5.213960647583008,3.1728827953338623,-1.5481562614440918
1770950136837276400,10.2602763671875,4.967499732971191,3.838087558746338,-0.9571290612220764
1770950136856245500,10.27924560546875,5.412564754486084,4.264009952545166,-0.48574298620224
1770950136875214600,10.298214599609375,5.709274768829346,4.541577339172363,-0.24885354936122894
1770950136894183400,10.317183349609374,6.240481376647949,4.642076015472412,-0.18903298676013947
1770950136913152500,10.336152587890625,6.7310099601745605,5.048855781555176,-0.17946170270442963
1770950136932121600,10.35512158203125,7.343572616577148,5.453242778778076,-0.3445664644241333
1770950136951090400,10.37409033203125,7.355536937713623,5.589633464813232,-1.0408778190612793
1770950136970059500,10.3930595703125,7.267002582550049,5.558526992797852,-1.7730815410614014
1770950136989028600,10.412028564453125,7.779066562652588,5.649454116821289,-2.500499725341797
1770950137007997400,10.43099755859375,8.695517539978027,5.819344520568848,-2.778067111968994
1770950137026966500,10.449966552734375,9.767501831054688,6.089733600616455,-2.737389087677002
1770950137045935400,10.468935302734375,10.76530933380127,6.647261142730713,-2.778067111968994
1770950137064904400,10.487904541015626,9.963713645935059,7.8795647621154785,-3.232703447341919
1770950137083873500,10.50687353515625,8.260024070739746,8.889336585998535,-3.6466617584228516
1770950137102842400,10.52584228515625,9.997213363647461,7.905886173248291,-3.3882367610931396
1770950137121811500,10.5448115234375,14.20858097076416,4.508078098297119,-3.1824541091918945
1770950137140780300,10.5637802734375,13.519448280334473,1.7682958841323853,-3.7806596755981445
1770950137159749400,10.582749267578125,10.162318229675293,0.5599204897880554,-4.412364959716797
1770950137178718500,10.601718505859376,6.309873104095459,1.7228323221206665,-4.185046672821045
1770950137197687300,10.620687255859375,3.8117663860321045,4.914857864379883,-2.5459632873535156
1770950137216656400,10.639656494140626,3.6777684688568115,7.36032247543335,-0.6245267391204834
1770950137235625200,10.658625244140625,4.515256404876709,6.955935478210449,1.1461620330810547
1770950137254594300,10.67759423828125,7.288537979125977,5.649454116821289,1.0839486122131348
1770950137273563100,10.696563232421875,9.095118522644043,4.132404804229736,0.27038896083831787
1770950137292532200,10.7155322265625,8.841479301452637,2.792423963546753,-0.7417750358581543
1770950137311501300,10.734501220703125,7.326822757720947,2.280359983444214,-1.5481562614440918
1770950137330470100,10.75347021484375,5.000999450683594,2.8929226398468018,-1.9525432586669922
1770950137349439200,10.772439208984375,3.806980848312378,3.8979079723358154,-1.8424733877182007
1770950137368408000,10.791407958984376,3.2542388439178467,4.548755645751953,-1.5314065217971802
1770950137387377200,10.810377197265625,3.759124279022217,4.632504463195801,-1.397408366203308
1770950137406346000,10.829345947265624,5.2115678787231445,4.275974273681641,-1.4931213855743408
1770950137425314800,10.848314697265625,6.601797580718994,3.957728624343872,-1.5840486288070679
1770950137444284000,10.867283935546874,7.537391185760498,3.9218363761901855,-1.6510475873947144
1770950137463252700,10.886252685546875,7.066005229949951,4.223331928253174,-1.887937068939209
1770950137482221800,10.905221923828124,6.530013084411621,4.587040901184082,-2.0985054969787598
1770950137501190700,10.924190673828125,6.558726787567139,5.053641319274902,-2.076970100402832
1770950137520159700,10.94315966796875,6.922435760498047,5.434100151062012,-1.9669002294540405
1770950137539128600,10.962128662109375,7.549355506896973,5.623133182525635,-1.9884356260299683
1770950137558097700,10.98109765625,8.513663291931152,5.694917678833008,-1.6606189012527466
1770950137577066500,11.00006640625,9.468399047851562,5.900700569152832,-0.9116654396057129
1770950137596035600,11.01903564453125,9.9469633102417,6.283552169799805,-0.035892341285943985
1770950137615004400,11.03800439453125,9.487542152404785,6.532405853271484,0.5814558863639832
1770950137633973500,11.056973388671874,8.810373306274414,6.606583118438721,0.15314064919948578
1770950137652942300,11.0759423828125,8.69791030883789,6.620940208435059,-0.8973084688186646
1770950137671911200,11.0949111328125,9.078369140625,6.977470874786377,-1.0049854516983032
1770950137690880300,11.11388037109375,11.765508651733398,7.558926582336426,-0.07417750358581543
1770950137709849000,11.13284912109375,13.335200309753418,8.776873588562012,0.7680960893630981
1770950137728818200,11.151818115234375,12.885350227355957,7.874779224395752,1.950150489807129
1770950137747787000,11.170787109375,12.268001556396484,5.424529075622559,-0.031106693670153618
1770950137766755800,11.189755859375,10.26760196685791,3.1274192333221436,-2.854637384414673
1770950137785725000,11.208724853515625,7.63310432434082,3.500699520111084,-4.390829563140869
1770950137804693800,11.22769384765625,5.704489231109619,5.429314613342285,-4.6995038986206055
1770950137823662600,11.24666259765625,7.467999458312988,5.144568920135498,-3.627519130706787
1770950137842631700,11.265631591796875,10.985448837280273,3.625126361846924,-2.5220351219177246
1770950137861600500,11.2846005859375,12.80160140991211,3.098705291748047,-1.801795482635498
1770950137880569300,11.3035693359375,11.36351490020752,3.0963125228881836,-1.7587246894836426
1770950137899538400,11.322538330078125,9.104690551757812,3.8739798069000244,-1.8903298377990723
1770950137918507300,11.34150732421875,6.063412666320801,4.201796531677246,-1.9980069398880005
1770950137937476000,11.36047607421875,4.613361835479736,4.1347975730896,-2.4191436767578125
1770950137956445200,11.379445068359376,4.847858905792236,3.634697675704956,-2.754138946533203
1770950137975414000,11.3984140625,5.381458282470703,3.2853455543518066,-2.8211379051208496
1770950137994382800,11.4173828125,5.910272121429443,3.314059257507324,-2.2995026111602783
1770950138032320800,11.45532080078125,8.085348129272461,3.7256247997283936,-1.8664016723632812
1770950138051289900,11.474289794921875,8.21695327758789,3.8045880794525146,-2.122433662414551
1770950138070258700,11.4932587890625,8.898907661437988,3.6299118995666504,-2.1894326210021973
1770950138089227500,11.5122275390625,11.052447319030762,3.4480574131011963,-2.2683959007263184
1770950138108196600,11.531196533203126,13.328022003173828,3.022135019302368,-2.416750907897949
1770950138127165400,11.55016552734375,13.14377498626709,3.1824541091918945,-2.550748825073242
1770950138146134300,11.56913427734375,11.758330345153809,4.833501815795898,-2.3497519493103027
1770950138165103000,11.58810302734375,12.15793228149414,5.7547383308410645,-1.6151553392410278
1770950138184072200,11.607072265625,14.694323539733887,4.438685894012451,-1.1940184831619263
1770950138203041000,11.626041015625,15.842878341674805,2.9383862018585205,-1.545763373374939
1770950138222009900,11.645009765625,14.292329788208008,2.3186452388763428,-2.4047868251800537
1770950138240978700,11.663978759765625,11.810972213745117,2.510071039199829,-2.5459632873535156
1770950138259947800,11.68294775390625,9.56889820098877,3.620340585708618,-1.8352949619293213
1770950138278916600,11.70191650390625,7.635497093200684,4.206582069396973,-1.2179467678070068
1770950138297885400,11.720885498046876,6.427121639251709,3.82373046875,-1.0169496536254883
1770950138316854500,11.7398544921875,5.848058700561523,3.0795626640319824,-0.8733802437782288
1770950138335823400,11.7588232421875,5.352744102478027,2.572284460067749,-0.6747759580612183
1770950138354792200,11.777792236328125,4.847858905792236,2.562713146209717,-0.6604190468788147
1770950138373761000,11.796760986328126,4.689932346343994,2.6177480220794678,-0.9284151792526245
1770950138392730000,11.815730224609375,4.144368648529053,2.5698914527893066,-1.2035897970199585
1770950138411699000,11.834698974609376,4.1659040451049805,2.909672260284424,-1.3615161180496216
1770950138430667800,11.853667724609375,6.034698486328125,3.3786656856536865,-1.8137595653533936
1770950138449636600,11.87263671875,8.001599311828613,2.8689942359924316,-1.459621787071228
1770950138468605400,11.89160546875,10.427921295166016,2.7278177738189697,-1.2705888748168945
1770950138487574500,11.910574462890626,10.444670677185059,3.1178479194641113,-1.2418749332427979
1770950138506543400,11.92954345703125,9.80817985534668,3.672982692718506,-1.1700903177261353
1770950138525512200,11.94851220703125,8.484949111938477,3.9433717727661133,-0.9978070259094238
1770950138544481000,11.96748095703125,7.704888820648193,4.275974273681641,-0.9978070259094238
1770950138563449900,11.986449951171876,7.628318786621094,4.706682205200195,-0.8614161610603333
1770950138582419000,12.0054189453125,8.439485549926758,4.979464054107666,-0.5216353535652161
1770950138601387800,12.0243876953125,9.631111145019531,5.182853698730469,-0.32542386651039124
1770950138620356600,12.043356689453125,10.588240623474121,5.376672267913818,-0.2153540402650833
1770950138639325400,12.062325439453126,11.143375396728516,5.580062389373779,-0.3852444589138031
1770950138658294300,12.081294189453125,11.93061351776123,5.702096462249756,0.33499518036842346
1770950138677263400,12.100263427734374,12.921242713928223,5.682953834533691,1.2945170402526855
1770950138696232200,12.119232177734375,13.445270538330078,4.766502857208252,1.5984054803848267
1770950138715201000,12.138200927734376,13.50748348236084,2.888136863708496,1.1102696657180786
1770950138734169900,12.157169921875,13.232309341430664,1.1389836072921753,0.8662018179893494
1770950138753138700,12.176138671875,13.203595161437988,0.11724831163883209,1.1748759746551514
1770950138772107800,12.195107666015625,12.66042423248291,-0.32303106784820557,1.2538390159606934
1770950138791076600,12.21407666015625,11.641081809997559,-0.349352091550827,1.2346965074539185
1770950138810045400,12.23304541015625,10.334601402282715,0.3086741268634796,1.1365907192230225
1770950138829014300,12.25201416015625,9.030512809753418,1.5625132322311401,1.007378339767456
1770950138847983000,12.270983154296875,7.776673793792725,2.7038896083831787,1.031306505203247
1770950138866952000,12.289951904296874,6.874579429626465,2.744567632675171,0.7154539823532104
1770950138885920800,12.308920654296875,6.6831536293029785,2.203789710998535,0.36610186100006104
1770950138904889600,12.3278896484375,7.0995049476623535,1.8735800981521606,0.24885354936122894
1770950138923858400,12.3468583984375,7.434499740600586,2.0099709033966064,0.29431718587875366
1770950138942827300,12.3658271484375,6.900900363922119,2.2372891902923584,0.349352091550827
1770950138961796000,12.384796142578125,6.278766632080078,2.6608188152313232,0.1459621787071228
1770950138980765000,12.403764892578126,5.7786664962768555,3.2350962162017822,-0.2392822653055191
1770950138999734000,12.422734130859375,5.924628734588623,3.589233875274658,-0.5862415432929993
1770950139018702800,12.441702880859374,6.5491557121276855,3.7543387413024902,-1.0719845294952393
1770950139037671700,12.460671630859375,7.704888820648193,3.7639100551605225,-1.5553346872329712
1770950139066125000,12.489125,7.848458290100098,3.8285162448883057,-1.5744773149490356
1770950139085094000,12.508093994140625,8.413164138793945,4.254438877105713,-1.852044701576233
1770950139104062700,12.527062744140625,9.958928108215332,4.309473514556885,-2.5914268493652344
1770950139123031600,12.546031494140625,10.782058715820312,3.7016966342926025,-3.16331148147583
1770950139142000400,12.56500048828125,10.729416847229004,3.304488182067871,-3.6083765029907227
1770950139160969200,12.58396923828125,11.483156204223633,3.871587038040161,-3.462414264678955
1770950139179938000,12.60293798828125,11.540583610534668,5.201996326446533,-2.9527430534362793
1770950139198907000,12.621906982421875,10.710273742675781,6.331408500671387,-1.8496519327163696
1770950139217875700,12.640875732421875,11.636296272277832,6.235695838928223,-0.6221339106559753
1770950139236844500,12.659844482421875,13.61037540435791,4.5391845703125,-0.24646073579788208
1770950139255813400,12.6788134765625,13.418949127197266,2.421536445617676,-1.9597218036651611
1770950139274782200,12.6977822265625,11.861222267150879,1.1078768968582153,-3.5509488582611084
1770950139293751000,12.7167509765625,10.841879844665527,0.6340979933738708,-3.6945180892944336
1770950139312720000,12.735719970703125,10.380064964294434,1.3926228284835815,-2.400001049041748
1770950139331688700,12.754688720703125,7.970492362976074,2.9288148880004883,-0.6436693072319031
1770950139350657500,12.773657470703125,6.565905570983887,3.3954153060913086,0.5216353535652161
1770950139369626400,12.79262646484375,6.405586242675781,3.2470602989196777,0.6269195079803467
1770950139388595200,12.81159521484375,7.022934436798096,2.5914268493652344,0.05024927482008934
1770950139407564000,12.83056396484375,8.128418922424316,1.8065811395645142,-0.6125625967979431
1770950139426532900,12.849532958984375,8.49452018737793,1.2634103298187256,-1.306481122970581
1770950139445501700,12.868501708984375,7.0301127433776855,1.2586246728897095,-1.6390835046768188
1770950139464470500,12.887470458984374,5.594419479370117,1.828116536140442,-1.7012969255447388
1770950139483439400,12.906439453125,5.087141036987305,2.5746772289276123,-1.31365966796875
1770950139502408200,12.925408203125,5.280959606170654,3.280559778213501,-0.6628118753433228
1770950139521377000,12.944376953125,6.398407936096191,4.046263217926025,-0.07178468257188797
1770950139540345900,12.963345947265625,8.204988479614258,4.579862594604492,0.34695929288864136
1770950139559314700,12.982314697265625,8.757730484008789,4.553541660308838,0.5000999569892883
1770950139578283500,13.001283447265624,8.11406135559082,4.54636287689209,-0.02632104977965355
1770950139597252400,13.02025244140625,7.747959613800049,4.512863636016846,-0.5359922647476196
1770950139616221200,13.03922119140625,7.245467185974121,4.48414945602417,-1.3615161180496216
1770950139635190000,13.05818994140625,8.71226692199707,4.632504463195801,-1.3304094076156616
1770950139654158800,13.077158935546874,9.856036186218262,4.8574299812316895,-1.0456634759902954
1770950139673127700,13.096127685546875,10.784451484680176,4.7473602294921875,-0.8183453679084778
1770950139692096500,13.115096435546874,11.97607707977295,4.1347975730896,-0.6221339106559753
1770950139711065300,13.1340654296875,13.332807540893555,3.9936211109161377,-0.5288137793540955
1770950139730034200,13.1530341796875,13.378271102905273,5.029713153839111,0.33738797903060913
1770950139749003000,13.1720029296875,12.744173049926758,5.855237007141113,1.552941918373108
1770950139767971800,13.190971923828124,12.229716300964355,5.781059741973877,1.9405791759490967
1770950139786940700,13.209940673828125,12.361321449279785,4.084548473358154,1.2323036193847656
1770950139805909500,13.228909423828124,12.217752456665039,2.5124638080596924,0.22492532432079315
1770950139824878300,13.24787841796875,11.645867347717285,1.8855443000793457,-0.16749759018421173
1770950139843847000,13.266846923828124,10.037891387939453,2.0243279933929443,0.3756731450557709
1770950139862816000,13.28581591796875,8.817551612854004,2.7349963188171387,0.9427721500396729
1770950139881784600,13.30478466796875,8.310273170471191,3.290131092071533,1.0528420209884644
1770950139900753400,13.32375341796875,7.944170951843262,3.476771354675293,0.914058268070221
1770950139919722200,13.34272216796875,7.417750358581543,3.3236305713653564,0.5288137793540955
1770950139938691000,13.361691162109375,7.001399040222168,3.0077781677246094,-0.17946170270442963
1770950139957660000,13.380659912109374,6.594619274139404,2.5914268493652344,-0.7968099117279053
1770950139976628700,13.399628662109375,6.113661766052246,2.344966173171997,-1.0408778190612793
1770950139995597600,13.41859765625,5.816951751708984,2.53399920463562,-0.7800601720809937
1770950140014566400,13.43756640625,5.862415313720703,3.108276605606079,-0.5742774605751038
1770950140033535200,13.45653515625,5.891129493713379,3.4576287269592285,-0.5790630578994751
1770950140052503800,13.47550390625,6.041877269744873,3.625126361846924,-0.8159525394439697
1770950140071472600,13.49447265625,6.446264266967773,3.8572301864624023,-1.0456634759902954
1770950140090441500,13.51344140625,6.8243303298950195,4.170690059661865,-1.25144624710083
1770950140109410300,13.532410400390624,7.144968509674072,4.388436794281006,-1.5050854682922363
1770950140128379100,13.551379150390625,7.623532772064209,4.5200419425964355,-1.6007983684539795
1770950140147348000,13.570347900390624,7.865208148956299,4.6301116943359375,-1.643869161605835
1770950140166316800,13.58931689453125,8.427521705627441,4.692325115203857,-1.6390835046768188
1770950140185285600,13.60828564453125,9.382257461547852,4.721039295196533,-1.5433706045150757
1770950140204254200,13.627254150390625,10.40638542175293,4.823930263519287,-1.5960127115249634
1770950140223223300,13.646223388671874,11.710474014282227,4.7401814460754395,-2.234896421432495
1770950140242192000,13.66519189453125,12.06939697265625,5.142175674438477,-2.7517459392547607
1770950140261160700,13.68416064453125,12.232109069824219,5.13021183013916,-1.954936146736145
1770950140280129500,13.703129638671875,13.320843696594238,4.6061835289001465,-1.0145567655563354
1770950140299098400,13.722098388671874,14.507683753967285,3.326023578643799,-0.8757730722427368
1770950140318067200,13.741067138671875,13.732409477233887,2.68953275680542,-1.6510475873947144
1770950140337035800,13.760035888671876,11.827722549438477,2.6608188152313232,-2.2372891902923584
1770950140356004600,13.779004638671875,9.592825889587402,3.1417760848999023,-2.1655044555664062
1770950140374973400,13.797973388671876,8.58784008026123,3.6323046684265137,-1.3782658576965332
1770950140393942300,13.8169423828125,8.307880401611328,3.9074792861938477,-0.275174617767334
1770950140412911000,13.8359111328125,8.260024070739746,3.9122650623321533,0.5431707501411438
1770950140431880000,13.8548798828125,8.173882484436035,3.5844483375549316,0.7417750358581543
1770950140450848800,13.873848876953126,8.21695327758789,2.9862427711486816,0.37088751792907715
1770950140469817300,13.8928173828125,7.334001541137695,2.421536445617676,-0.2273181527853012
1770950140488786200,13.9117861328125,6.501298904418945,2.170290231704712,-0.8279166221618652
1770950140507755000,13.930755126953125,5.759523868560791,2.3617160320281982,-1.2586246728897095
1770950140526723800,13.949723876953126,5.407779216766357,2.794816732406616,-1.399801254272461
1770950140545692700,13.968692626953125,5.2043890953063965,3.2350962162017822,-1.3088740110397339
1770950140564661500,13.98766162109375,5.436492919921875,3.696911096572876,-0.8733802437782288
1770950140583630000,14.006630126953125,6.297909259796143,4.249652862548828,-0.27038896083831787
1770950140602599000,14.025598876953126,7.0683979988098145,4.9292144775390625,0.004785645287483931
1770950140621567700,14.044567626953125,7.520641803741455,5.139782905578613,-0.13160525262355804
1770950140640536600,14.06353662109375,7.936992645263672,4.8191447257995605,-0.14356936514377594
1770950140659505400,14.08250537109375,8.616554260253906,4.694717884063721,-0.2967100143432617
1770950140678474000,14.101473876953126,9.492327690124512,4.833501815795898,-0.4666004180908203
1770950140697443000,14.120443115234375,10.176674842834473,5.003392219543457,-0.4833501875400543
1770950140716411600,14.13941162109375,10.423135757446289,5.233103275299072,-0.4666004180908203
1770950140735380500,14.15838037109375,10.686346054077148,5.391029357910156,-0.48574298620224
1770950140754349300,14.177349365234376,11.516654968261719,5.498706340789795,-0.5288137793540955
1770950140773318100,14.196318115234375,12.533604621887207,5.271388053894043,0.3158525824546814
1770950140792286700,14.21528662109375,13.083953857421875,5.020142078399658,1.4739787578582764
1770950140811255600,14.234255615234375,13.246665954589844,4.235296249389648,2.3234307765960693
1770950140830224400,14.253224365234376,13.359128952026367,3.0101709365844727,1.8999011516571045
1770950140849193200,14.272193115234375,12.468998908996582,2.1296122074127197,0.9786644577980042
1770950140868162000,14.291162109375,11.315658569335938,1.923829436302185,0.7776673436164856
1770950140887131000,14.310130859375,10.001998901367188,2.2612173557281494,1.2490534782409668
1770950140906099500,14.329099365234375,8.927620887756348,2.861815929412842,1.545763373374939
1770950140925068300,14.348068359375,7.824530124664307,3.404986619949341,1.466800332069397
1770950140944037000,14.367037109375,6.927221775054932,3.730410575866699,1.1653046607971191
1770950140963006000,14.386005859375,6.742974281311035,3.620340585708618,0.9332008361816406
1770950140981974800,14.404974853515625,6.819544315338135,3.074777126312256,0.3397808074951172
1770950141000943400,14.423943359375,6.876972198486328,2.541177749633789,-0.37088751792907715
1770950141019912200,14.442912109375,6.503692150115967,2.366501569747925,-0.6699903607368469
1770950141038881000,14.461881103515625,6.166304111480713,2.730210542678833,-0.48813581466674805
1770950141057849900,14.480849853515625,6.1950178146362305,3.342773199081421,-0.38285163044929504
1770950141076818700,14.499818603515624,6.240481376647949,3.7112679481506348,-0.4618147611618042
1770950141095787300,14.518787353515625,6.522834300994873,3.9122650623321533,-0.6891329288482666
1770950141114756000,14.537756103515624,6.989434719085693,4.120440483093262,-0.9116654396057129
1770950141133725000,14.556724853515625,7.22871732711792,4.438685894012451,-1.0600204467773438
1770950141152693800,14.57569384765625,7.503891944885254,4.756931304931641,-1.1078768968582153
1770950141171662600,14.59466259765625,8.00638484954834,5.003392219543457,-1.28255295753479
1770950141190631200,14.613631103515624,8.451449394226074,4.989035129547119,-1.6199408769607544
1770950141209600000,14.63260009765625,9.363115310668945,4.797609329223633,-1.892722725868225
1770950141228568800,14.65156884765625,10.454241752624512,4.764110088348389,-2.117648124694824
1770950141247537700,14.67053759765625,10.971092224121094,4.572684288024902,-2.287538528442383
1770950141266506500,14.689506591796874,11.899506568908691,4.7401814460754395,-2.6273193359375
1770950141285475000,14.70847509765625,11.56690502166748,5.735595703125,-2.572284460067749
1770950141304444000,14.72744384765625,11.660224914550781,6.180660724639893,-1.7180466651916504
1770950141323412700,14.746412841796875,12.88774299621582,5.26899528503418,-1.1030912399291992
1770950141342381600,14.765381591796874,13.462019920349121,3.483949661254883,-1.397408366203308
1770950141361350100,14.78435009765625,12.145967483520508,2.4358935356140137,-2.5938198566436768
1770950141380319200,14.8033193359375,10.176674842834473,2.4670002460479736,-3.170490026473999
1770950141399287800,14.822287841796875,9.183652877807617,3.469592809677124,-2.555534601211548
1770950141418256600,14.841256591796874,8.647661209106445,3.728017568588257,-0.9547362327575684
1770950141437225500,14.8602255859375,7.987242221832275,3.6993038654327393,-0.1459621787071228
1770950141456194300,14.8791943359375,7.29093074798584,3.720839262008667,0.20099709928035736
1770950141475163000,14.898162841796875,6.984649181365967,3.6442689895629883,0.6340979933738708
1770950141494131700,14.917131591796876,6.826723098754883,3.38105845451355,0.6939185857772827
1770950141513100500,14.9361005859375,6.367300987243652,2.9718856811523438,0.13639089465141296
1770950141532069000,14.955069091796876,6.010770320892334,2.7110681533813477,-0.7992027401924133
1770950141551038000,14.974037841796875,5.491528034210205,2.5531418323516846,-1.4787644147872925
1770950141570006800,14.9930068359375,5.1182475090026855,2.682354211807251,-1.7587246894836426
1770950141588975600,15.0119755859375,5.338387489318848,3.0795626640319824,-1.5840486288070679
1770950141607944200,15.030944091796876,5.711667537689209,3.5748770236968994,-1.1365907192230225
1770950141626913300,15.049913330078125,6.467799663543701,4.2831525802612305,-0.5599204897880554
1770950141645881900,15.0688818359375,7.056434154510498,4.60857629776001,-0.20099709928035736
1770950141664850700,15.0878505859375,7.786244869232178,4.694717884063721,0.02392822690308094
1770950141683819500,15.106819580078126,8.733802795410156,4.66361141204834,-0.059820566326379776
1770950141702788000,15.1257880859375,9.154939651489258,4.642076015472412,-0.2225325107574463
1770950141721757000,15.1447568359375,9.513862609863281,4.706682205200195,-0.23210379481315613
1770950141740725800,15.163725830078125,10.322636604309082,4.821537494659424,-0.24167509377002716
1770950141759694600,15.182694580078126,11.186446189880371,4.993820667266846,-0.0933200865983963
1770950141778663200,15.2016630859375,12.045469284057617,5.008177757263184,-0.2727817893028259
1770950141797632000,15.220632080078126,12.768101692199707,5.178068161010742,-0.5288137793540955
1770950141816600800,15.239600830078125,13.134203910827637,5.371886730194092,0.48095735907554626
1770950141835569700,15.258569580078126,13.320843696594238,5.6685967445373535,1.6199408769607544
1770950141854538500,15.27753857421875,12.885350227355957,5.309673309326172,2.172683000564575
1770950141873507000,15.296507080078126,12.811172485351562,3.7734813690185547,1.7611174583435059
1770950141892476000,15.315475830078125,12.509676933288574,2.0650060176849365,0.6819544434547424
1770950141911444700,15.33444482421875,11.72722339630127,0.9858429431915283,0.19621145725250244
1770950141930413300,15.353413330078125,10.770094871520996,0.6747759580612183,0.4737788736820221
1770950141949382100,15.372382080078125,10.114460945129395,1.4093725681304932,0.8015955686569214
1770950141968351000,15.39135107421875,8.903693199157715,2.6297121047973633,1.1270195245742798
1770950141987319800,15.41031982421875,7.635497093200684,3.3858439922332764,1.1653046607971191
1770950142006288400,15.429288330078125,6.460621356964111,3.737588882446289,1.0671988725662231
1770950142025257200,15.44825732421875,5.816951751708984,3.656233072280884,0.7800601720809937
1770950142044226000,15.46722607421875,5.654240131378174,3.3954153060913086,0.20817556977272034
1770950142063194600,15.486194580078125,5.532206058502197,3.084348440170288,-0.42831525206565857
1770950142082163500,15.50516357421875,5.395814895629883,2.9958138465881348,-0.605384111404419
1770950142101132300,15.52413232421875,5.338387489318848,3.2350962162017822,-0.4737788736820221
1770950142120101000,15.54310107421875,5.405386447906494,3.6059837341308594,-0.3206382393836975
1770950142139070000,15.562070068359375,5.663811206817627,3.926621913909912,-0.3517449200153351
1770950142158038500,15.58103857421875,6.130411624908447,4.161118507385254,-0.6532405614852905
1770950142177007400,15.60000732421875,7.008577346801758,4.144368648529053,-1.0193424224853516
1770950142195976200,15.61897607421875,8.087740898132324,4.094119548797607,-1.2681959867477417
1770950142214944800,15.63794482421875,9.375079154968262,4.388436794281006,-1.4069796800613403
1770950142233913600,15.65691357421875,9.705288887023926,4.855037212371826,-1.4165509939193726
1770950142252882400,15.67588232421875,9.734002113342285,5.2043890953063965,-1.0863415002822876
1770950142271851000,15.69485107421875,10.372885704040527,5.302495002746582,-0.9499505758285522
1770950142290819800,15.71381982421875,10.791629791259766,5.19242525100708,-1.1198409795761108
1770950142309788700,15.73278857421875,11.385049819946289,4.6372904777526855,-1.3758729696273804
1770950142328757200,15.75175732421875,11.846864700317383,4.878965377807617,-2.029113531112671
1770950142347726000,15.77072607421875,11.143375396728516,5.675775527954102,-1.703689694404602
1770950142366695000,15.78969482421875,11.854043006896973,5.678168296813965,-0.9690931439399719
1770950142385663500,15.80866357421875,12.918848991394043,4.60139799118042,-0.8255237936973572
1770950142404632300,15.82763232421875,12.806386947631836,3.201596736907959,-1.947757601737976
1770950142423601200,15.84660107421875,11.069197654724121,2.376072883605957,-2.8450660705566406
1770950142442569700,15.86556982421875,9.92542839050293,2.3497519493103027,-2.644068956375122
1770950142461538600,15.88453857421875,9.69093132019043,2.871387243270874,-1.4787644147872925
1770950142480507400,15.90350732421875,10.145567893981934,3.06999135017395,-0.11006984114646912
1770950142499476000,15.92247607421875,9.990034103393555,2.988635540008545,0.5096712112426758
1770950142518444800,15.94144482421875,9.198010444641113,2.8450660705566406,0.5575276613235474
1770950142537413600,15.96041357421875,8.336593627929688,2.691925525665283,0.4498506486415863
1770950142556382200,15.97938232421875,7.75753116607666,2.5770699977874756,0.1052841991186142
1770950142575351000,15.99835107421875,7.372286796569824,2.6392834186553955,-0.21296121180057526
1770950142594320000,16.01731982421875,6.503692150115967,2.871387243270874,-0.6675975322723389
1770950142613288700,16.036288818359374,5.546562671661377,2.9958138465881348,-1.2945170402526855
1770950142632257300,16.05525732421875,5.2354960441589355,2.9312076568603516,-1.6941183805465698
1770950142651226000,16.07422607421875,5.182853698730469,3.208775281906128,-1.954936146736145
1770950142670195000,16.09319482421875,5.412564754486084,3.6921253204345703,-1.5481562614440918
1770950142689163500,16.11216357421875,5.6446685791015625,4.299902439117432,-0.8398807644844055
1770950142708132400,16.13113232421875,6.192625045776367,4.862215518951416,-0.727418065071106
1770950142727101200,16.15010107421875,6.680760860443115,5.020142078399658,-0.8111668825149536
1770950142746069800,16.16906982421875,7.195217609405518,4.800002098083496,-1.0145567655563354
1770950142765038600,16.18803857421875,7.932207107543945,4.711467742919922,-1.2538390159606934
1770950142784007200,16.207007080078125,8.62612533569336,4.9363932609558105,-1.4189438819885254
1770950142802976000,16.22597607421875,9.34875774383545,5.082355499267578,-1.301695466041565
1770950142821944800,16.24494482421875,9.980463027954102,5.1876397132873535,-1.0839486122131348
1770950142840913400,16.263913330078125,10.652846336364746,5.1876397132873535,-0.8327022790908813
1770950142859882200,16.28288232421875,11.892328262329102,5.089533805847168,-1.062413215637207
1770950142878851000,16.30185107421875,12.930813789367676,5.508277893066406,-0.7752745151519775
1770950142897819600,16.320819580078126,14.036297798156738,5.776273727416992,0.8231309652328491
1770950142916788500,16.33978857421875,14.184652328491211,6.089733600616455,1.8185452222824097
1770950142935757000,16.358757080078124,12.945170402526855,5.158925533294678,1.7826528549194336
1770950142954726000,16.377725830078123,12.134003639221191,2.8929226398468018,1.0671988725662231
1770950142973694700,16.39669482421875,11.770294189453125,0.8925228714942932,0.43549370765686035
1770950142992663300,16.415663330078125,12.224930763244629,-0.4211367964744568,0.35892340540885925
1770950143011632000,16.434632080078124,12.346964836120605,-1.031306505203247,0.2225325107574463
1770950143030600700,16.4536005859375,11.411371231079102,-0.4546363055706024,-0.17228323221206665
1770950143049569500,16.472569580078126,9.848857879638672,1.0049854516983032,-0.02632104977965355
1770950143068538400,16.491538330078125,8.401200294494629,2.7732813358306885,0.2273181527853012
1770950143087507000,16.5105068359375,6.960721015930176,4.098905086517334,0.38763725757598877
1770950143106475800,16.529475830078123,5.979663848876953,4.273581027984619,0.19381862878799438
1770950143125444400,16.5484443359375,5.931807518005371,3.2829527854919434,-0.08374879509210587
1770950143144413200,16.5674130859375,6.317051887512207,2.6464617252349854,-0.4618147611618042
1770950143163382000,16.586382080078124,6.130411624908447,2.524427890777588,-0.7513462901115417
1770950143182350600,16.6053505859375,5.467599868774414,2.6799614429473877,-0.7824530005455017
1770950143201319400,16.6243193359375,4.88853645324707,2.9718856811523438,-0.5407779216766357
1770950143220288000,16.6432880859375,4.692325115203857,3.342773199081421,-0.4785645306110382
1770950143239256800,16.6622568359375,5.063212871551514,3.6705899238586426,-0.729810893535614
1770950143258225700,16.6812255859375,5.773880958557129,3.689732551574707,-0.8805587291717529
1770950143277194200,16.7001943359375,6.903293132781982,3.658625841140747,-0.5072783827781677
1770950143296163000,16.7191630859375,8.128418922424316,3.830909013748169,-0.12681959569454193
1770950143315131600,16.738131591796876,9.126225471496582,4.151547431945801,-0.06939185410737991
1770950143334100500,16.7571005859375,9.276973724365234,4.350151538848877,-0.4666004180908203
1770950143353069000,16.776069091796874,8.965906143188477,4.579862594604492,-0.9619147181510925
1770950143372038000,16.795037841796876,9.41336441040039,5.2043890953063965,-1.3088740110397339
1770950143391006700,16.8140068359375,10.420742988586426,5.807380676269531,-1.2610175609588623
1770950143409975300,16.832975341796875,11.37069320678711,6.348158359527588,-0.9451649188995361
1770950143428944100,16.851944091796874,12.406785011291504,6.446264266967773,-1.301695466041565
1770950143447912700,16.87091259765625,13.890335083007812,5.836094379425049,-2.2325034141540527
1770950143466881300,16.88988134765625,14.703895568847656,4.924428939819336,-1.9166508913040161
1770950143485850000,16.90885009765625,14.646467208862305,4.019941806793213,-1.521835207939148
1770950143504819000,16.92781884765625,13.954941749572754,3.8189449310302734,-2.8761727809906006
1770950143523787500,16.94678759765625,11.983255386352539,3.4002010822296143,-3.4743785858154297
1770950143542756400,16.96575634765625,11.734402656555176,2.486142635345459,-3.531806230545044
1770950143561725000,16.984724853515626,13.174881935119629,0.7968099117279053,-3.4121651649475098
1770950143580693800,17.00369384765625,14.227723121643066,-0.7513462901115417,-2.8043880462646484
1770950143599662300,17.022662353515624,14.127224922180176,-1.648654818534851,-1.9716858863830566
1770950143618631200,17.041631103515623,12.849457740783691,-1.4739787578582764,-1.5074782371520996
1770950143637599700,17.060599853515626,10.717453002929688,-0.23210379481315613,-1.1676974296569824
1770950143656568600,17.079568603515625,8.57348346710205,1.3304094076156616,-1.2251251935958862
1770950143675537200,17.098537109375,7.45364236831665,2.344966173171997,-1.3902299404144287
1770950143694506000,17.117506103515623,7.348358154296875,2.3186452388763428,-1.430907964706421
1770950143713474600,17.136474609375,7.561319351196289,2.1846470832824707,-1.5385849475860596
1770950143732443400,17.155443359375,7.424928665161133,2.5196423530578613,-1.5242279767990112
1770950143751412000,17.174411865234376,7.506284713745117,2.8450660705566406,-1.526620864868164
1770950143770380800,17.193380859375,7.3052873611450195,2.8905298709869385,-1.730010747909546
1770950143789349400,17.212349365234374,7.020541667938232,2.7278177738189697,-1.9812572002410889
1770950143808318200,17.231318115234377,6.912864685058594,2.3784656524658203,-2.1439690589904785
1770950143827287000,17.250287109375,7.03489875793457,2.0338993072509766,-2.3258235454559326
1770950143846255600,17.269255615234375,7.247859954833984,1.6510475873947144,-2.321038007736206
1770950143874708500,17.29770849609375,7.539783954620361,1.3232308626174927,-1.8831514120101929
1770950143893677300,17.31667724609375,7.106683254241943,1.5050854682922363,-1.5002998113632202
1770950143912646000,17.33564599609375,6.52044153213501,2.03629207611084,-1.0289137363433838
1770950143931614700,17.35461474609375,6.463014125823975,2.691925525665283,-0.7250252366065979
1770950143950583300,17.373583251953125,6.508477687835693,3.486342668533325,-0.5527420043945312
1770950143969552100,17.39255224609375,6.262016773223877,4.278367042541504,-0.46899324655532837
1770950143988520700,17.411520751953127,6.331408500671387,4.8502516746521,-0.37806597352027893
1770950144007489500,17.430489501953126,7.788637638092041,5.048855781555176,-0.1698904037475586
1770950144026458000,17.4494580078125,9.980463027954102,4.840680122375488,0.22971096634864807
1770950144045427000,17.468427001953124,11.96172046661377,4.8813581466674805,0.11485548317432404
1770950144064395500,17.4873955078125,13.335200309753418,4.675575256347656,0.35892340540885925
1770950144083364400,17.5063642578125,14.608181953430176,4.237689018249512,1.428515076637268
1770950144102333000,17.5253330078125,14.746966361999512,4.249652862548828,2.462214469909668
1770950144121301500,17.544301513671876,13.083953857421875,4.316651821136475,2.8833513259887695
1770950144140270300,17.563270263671875,10.581061363220215,4.852644443511963,2.6057839393615723
1770950144159239000,17.582239013671874,9.06401252746582,4.704289436340332,1.7611174583435059
1770950144178207700,17.601207763671876,9.934999465942383,2.5387847423553467,0.5934200286865234
1770950144197176300,17.62017626953125,11.499905586242676,0.7034898400306702,-0.3206382393836975
1770950144216145200,17.639145263671875,11.298908233642578,-0.12442677468061447,-0.5742774605751038
1770950144235113700,17.65811376953125,10.798809051513672,0.47617170214653015,-0.727418065071106
1770950144254082600,17.67708251953125,9.114261627197266,1.7778671979904175,-0.31345975399017334
1770950144273051100,17.696051025390624,8.221738815307617,2.746960401535034,0.16031911969184875
1770950144292019700,17.715019775390626,7.417750358581543,3.177668571472168,0.5048855543136597
1770950144310988500,17.733988525390625,6.8482584953308105,3.2853455543518066,0.3852444589138031
1770950144329957000,17.75295703125,6.376872539520264,3.122633457183838,-0.15314064919948578
1770950144348926000,17.771926025390623,6.049055576324463,2.792423963546753,-0.6580262184143066
1770950144367894500,17.79089453125,5.9509501457214355,2.682354211807251,-1.00259268283844
1770950144386863400,17.80986328125,6.161518096923828,2.847458839416504,-0.9810572862625122
1770950144405832000,17.82883203125,5.9509501457214355,3.218346357345581,-0.6891329288482666
1770950144424800500,17.847800537109375,5.627918720245361,3.8213376998901367,-0.5670989751815796
1770950144443769300,17.866769287109374,5.319244861602783,4.524827480316162,-0.6963114142417908
1770950144462738000,17.885738037109373,5.639883041381836,5.144568920135498,-0.9690931439399719
1770950144481706500,17.90470654296875,6.539584159851074,5.350351333618164,-1.2011969089508057
1770950144500675300,17.92367529296875,7.6977105140686035,5.252245903015137,-1.6462619304656982
1770950144519644000,17.942643798828126,8.396414756774902,5.015356063842773,-2.163111686706543
1770950144538612700,17.96161279296875,8.865407943725586,4.778466701507568,-2.8833513259887695
1770950144557581300,17.980581298828124,9.198010444641113,4.4482574462890625,-3.517449378967285
1770950144576550100,17.999550048828127,9.798608779907227,4.144368648529053,-4.07258415222168
1770950144595518700,18.018518798828126,10.710273742675781,4.053441524505615,-4.524827480316162
1770950144614487300,18.0374873046875,12.492926597595215,3.5748770236968994,-4.467400074005127
1770950144633456000,18.0564560546875,14.598610877990723,3.414557933807373,-4.113262176513672
1770950144652424700,18.0754248046875,13.622339248657227,4.376472473144531,-3.768695592880249
1770950144671393300,18.094393310546874,12.021540641784668,4.874179840087891,-3.510270833969116
1770950144690362000,18.113362060546876,11.413763999938965,4.041477680206299,-3.672982692718506
1770950144709330700,18.13233056640625,10.569097518920898,2.8905298709869385,-4.548755645751953
1770950144728299500,18.151299560546875,8.800801277160645,2.8522446155548096,-5.1565327644348145
1770950144747268000,18.17026806640625,7.429714202880859,3.1130621433258057,-4.922036170959473
1770950144766236700,18.189236572265624,8.353343963623047,3.0269205570220947,-3.4648072719573975
1770950144785205200,18.208205322265623,9.820143699645996,2.6368906497955322,-1.7682958841323853
1770950144804174000,18.227174072265626,10.12881851196289,2.163111686706543,-0.6125625967979431
1770950144823142700,18.246142578125,9.738788604736328,1.6414763927459717,0.17946170270442963
1770950144842111500,18.265111572265624,8.941978454589844,1.4428720474243164,0.380458801984787
1770950144861080000,18.284080078125,7.592426300048828,1.4931213855743408,0.02153540402650833
1770950144880048600,18.303048583984374,6.333801746368408,1.495514154434204,-0.8757730722427368
1770950144899017200,18.322017333984373,5.201996326446533,1.1892328262329102,-1.4476577043533325
1770950144917985800,18.34098583984375,4.393222332000732,1.2945170402526855,-1.4524433612823486
1770950144936954600,18.35995458984375,4.024727821350098,2.100898265838623,-0.9355936646461487
1770950144955923500,18.37892333984375,4.187439441680908,3.1800613403320312,-0.8255237936973572
1770950144974892000,18.39789208984375,5.166104316711426,3.9433717727661133,-0.794417142868042
1770950144993860600,18.416860595703124,6.656832695007324,4.1419758796691895,-0.6005984544754028
1770950145012829400,18.435829345703127,8.197810173034668,4.29033088684082,-0.6317051649093628
1770950145031798000,18.454798095703126,9.485149383544922,4.409972190856934,-0.8973084688186646
1770950145050766600,18.4737666015625,10.210174560546875,4.2831525802612305,-1.1653046607971191
1770950145069735200,18.492735107421876,10.786844253540039,3.9385859966278076,-1.4380863904953003
1770950145088704000,18.5117041015625,11.708081245422363,3.2159535884857178,-1.6247265338897705
1770950145107672600,18.530672607421874,12.189038276672363,2.5914268493652344,-1.8975083827972412
1770950145126641400,18.549641357421876,12.153145790100098,2.6297121047973633,-2.084148406982422
1770950145145610000,18.56860986328125,12.205788612365723,3.091526746749878,-1.4476577043533325
1770950145164578600,18.58757861328125,12.92602825164795,3.713660717010498,-0.8063812255859375
1770950145183547100,18.606547119140625,13.844871520996094,3.0269205570220947,-0.08853443711996078
1770950145202516000,18.625515869140624,14.804393768310547,1.196411371231079,-0.6532405614852905
1770950145221484500,18.644484619140623,14.967105865478516,-0.42352959513664246,-1.5170495510101318
1770950145240453000,18.663453125,14.811572074890137,-1.1748759746551514,-1.3304094076156616
1770950145259421700,18.682421630859373,13.74198055267334,-0.39481574296951294,-0.5718846321105957
1770950145278390500,18.701390625,11.392229080200195,1.6630117893218994,0.4498506486415863
1770950145297359000,18.720359130859375,8.824729919433594,3.7016966342926025,1.8137595653533936
1770950145316327700,18.73932763671875,6.9583282470703125,4.957928657531738,2.6703901290893555
1770950145335296500,18.758296630859373,5.934200286865234,4.864608287811279,2.3258235454559326
1770950145354265000,18.77726513671875,6.094519138336182,4.036691665649414,0.8614161610603333
1770950145373233700,18.796233642578127,5.848058700561523,2.8833513259887695,-0.014356935396790504
1770950145392202200,18.8152021484375,5.730810165405273,2.517249345779419,-0.7250252366065979
1770950145411171000,18.834171142578125,5.589633464813232,2.644068956375122,-0.9571290612220764
1770950145430139600,18.8531396484375,5.54177713394165,3.115455150604248,-1.00259268283844
1770950145449108200,18.872108154296875,5.661418437957764,3.7710886001586914,-0.7896314859390259
1770950145468076800,18.891076904296874,6.087340831756592,4.398007869720459,-0.5790630578994751
1770950145487045600,18.910045654296876,6.38165807723999,4.910071849822998,-0.6340979933738708
1770950145506014200,18.92901416015625,7.087540626525879,5.295316696166992,-0.7154539823532104
1770950145524982800,18.947982666015626,8.078168869018555,5.498706340789795,-0.7250252366065979
1770950145543951600,18.96695166015625,9.305686950683594,5.54177713394165,-0.760917603969574
1770950145562920200,18.985920166015624,10.928021430969238,5.139782905578613,-0.8757730722427368
1770950145581888800,19.004888671875,11.894721031188965,4.321437835693359,-1.2203395366668701
1770950145600857300,19.023857421875,11.894721031188965,3.7543387413024902,-1.9764715433120728
1770950145619826000,19.042825927734373,11.164910316467285,3.7184464931488037,-2.667997360229492
1770950145638794800,19.061794677734376,10.705488204956055,4.297509670257568,-3.2925238609313965
1770950145657763300,19.080763427734375,10.272387504577637,5.1565327644348145,-2.9766714572906494
1770950145676732000,19.09973193359375,11.645867347717285,5.096712112426758,-2.007578134536743
1770950145695700500,19.118700439453125,13.194024085998535,3.9290146827697754,-1.4691931009292603
1770950145714669300,19.13766943359375,12.63171100616455,2.706282377243042,-2.3856441974639893
1770950145733638000,19.156637939453127,10.341779708862305,1.832902193069458,-3.7399818897247314
1770950145752606500,19.1756064453125,8.85344409942627,2.0889341831207275,-4.208974838256836
1770950145771575000,19.194574951171877,8.664410591125488,2.799602508544922,-3.1824541091918945
1770950145790544000,19.2135439453125,9.147761344909668,3.3403804302215576,-1.6151553392410278
1770950145809512400,19.232512451171875,8.319844245910645,3.5581271648406982,-0.4953143000602722
1770950145828481000,19.25148095703125,6.898507595062256,3.572484254837036,0.45224347710609436
1770950145847449600,19.27044970703125,5.807380676269531,3.3619158267974854,0.9523434042930603
1770950145866418200,19.289418212890624,5.726024627685547,3.0077781677246094,0.6221339106559753
1770950145885387000,19.308386962890626,6.376872539520264,2.2061824798583984,-0.48574298620224
1770950145904355600,19.32735546875,6.788437843322754,1.6271194219589233,-1.1892328262329102
1770950145923324200,19.34632421875,6.597012042999268,1.3232308626174927,-1.7611174583435059
1770950145942292700,19.365292724609375,6.474977970123291,1.3830515146255493,-2.0243279933929443
1770950145961261300,19.38426123046875,5.86002254486084,2.1200408935546875,-1.8855443000793457
1770950145980230100,19.403230224609374,5.79780912399292,3.321237802505493,-1.588834285736084
1770950145999198700,19.42219873046875,6.204588890075684,3.893122434616089,-0.885344386100769
1770950146018167300,19.441167236328123,7.200003147125244,4.304687976837158,-0.18903298676013947
1770950146037136000,19.460135986328126,8.372486114501953,4.737788677215576,0.12681959569454193
1770950146056104700,19.479104736328125,9.836894035339355,4.862215518951416,0.1459621787071228
1770950146075073300,19.4980732421875,10.451848983764648,4.66361141204834,-0.1459621787071228
1770950146094041900,19.517041748046875,10.494919776916504,4.486542224884033,-0.4091726839542389
1770950146113010400,19.536010498046874,10.600204467773438,4.541577339172363,-0.638883650302887
1770950146131979000,19.55497900390625,11.373085975646973,4.5200419425964355,-0.8757730722427368
1770950146150947800,19.57394775390625,12.418749809265137,4.280759811401367,-1.007378339767456
1770950146169916400,19.59291650390625,13.263416290283203,4.1491546630859375,-0.1746760457754135
1770950146188885000,19.611885009765626,13.682159423828125,4.603790760040283,0.8087740540504456
1770950146207853600,19.630853515625,13.6175537109375,4.527220249176025,1.5840486288070679
1770950146226822100,19.649822265625,13.555339813232422,3.0077781677246094,1.0169496536254883
1770950146245791000,19.668791015625,13.009777069091797,1.2346965074539185,-0.22013968229293823
1770950146264759600,19.687759521484374,11.966506004333496,0.35892340540885925,-0.9619147181510925
1770950146283728100,19.70672802734375,10.801201820373535,0.38285163044929504,-0.8446664214134216
1770950146302696700,19.72569677734375,9.731609344482422,1.2897313833236694,-0.20099709928035736
1770950146321665500,19.74466552734375,8.894122123718262,2.4717857837677,0.6221339106559753
1770950146340634000,19.763634033203125,7.630711555480957,3.2063822746276855,1.0719845294952393
1770950146359602700,19.782602783203124,6.534798622131348,3.6083765029907227,0.7202396392822266
1770950146378571500,19.801571533203123,5.862415313720703,3.321237802505493,0.019142581149935722
1770950146397539800,19.820539794921874,5.491528034210205,2.7493531703948975,-0.6173482537269592
1770950146416508700,19.8395087890625,5.340780258178711,2.562713146209717,-1.0217353105545044
1770950146435477200,19.858477294921876,5.376672267913818,2.7182464599609375,-1.057627558708191
1770950146454445800,19.87744580078125,5.412564754486084,3.0556344985961914,-0.8470591902732849
1770950146473414400,19.896414306640626,5.682953834533691,3.366701364517212,-0.7657032608985901
1770950146492383200,19.91538330078125,6.465406894683838,3.5222349166870117,-0.8662018179893494
1770950146511351800,19.934351806640624,7.5086774826049805,3.579662561416626,-1.074377417564392
1770950146530320400,19.9533203125,8.327022552490234,3.620340585708618,-1.2418749332427979
1770950146549289200,19.972289306640626,8.784051895141602,3.7974095344543457,-1.4093725681304932
1770950146568257500,19.991257568359377,9.506684303283691,4.043870449066162,-1.648654818534851
1770950146587226400,20.010226318359376,10.009177207946777,4.098905086517334,-2.1272194385528564
1770950146606195000,20.02919482421875,10.200602531433105,3.8117663860321045,-2.6799614429473877
1770950146625163500,20.04816357421875,10.348958015441895,3.5126636028289795,-3.376272678375244
1770950146644132400,20.06713232421875,10.389636039733887,3.4815568923950195,-3.5341989994049072
1770950146663101000,20.086100830078124,11.033305168151855,4.278367042541504,-3.704089403152466
1770950146682069500,20.105069580078126,11.0835542678833,5.340780258178711,-3.541377544403076
1770950146701038000,20.1240380859375,11.715259552001953,5.120640277862549,-2.5292134284973145
1770950146720007000,20.1430068359375,12.17228889465332,3.665804386138916,-1.7515461444854736
1770950146738975500,20.1619755859375,12.346964836120605,2.366501569747925,-2.699103832244873
1770950146757944000,20.180944091796874,11.229516983032227,1.5481562614440918,-3.8428730964660645
1770950146776912600,20.19991259765625,10.71984577178955,1.3112667798995972,-3.981656789779663
1770950146795881200,20.218881103515624,10.248459815979004,1.6534404754638672,-2.6799614429473877
1770950146814850000,20.23785009765625,9.767501831054688,2.337787628173828,-0.8279166221618652
1770950146833818600,20.256818603515626,9.602396965026855,2.65842604637146,0.0933200865983963
1770950146852787200,20.275787109375,9.166903495788574,2.383251428604126,0.2584248483181
1770950146871755800,20.294755859375,8.267202377319336,2.146361827850342,0.23210379481315613
1770950146890724600,20.313724609375,7.798209190368652,2.1607189178466797,0.19621145725250244
1770950146909693200,20.332693115234374,7.077969551086426,2.4430718421936035,0.10767702013254166
1770950146928661800,20.351661865234377,6.56829833984375,2.6632115840911865,-0.20099709928035736
1770950146947630300,20.37063037109375,6.20219612121582,2.486142635345459,-0.6891329288482666
1770950146966599200,20.38959912109375,6.10169792175293,2.366501569747925,-1.2490534782409668
1770950146985567700,20.408567626953126,6.159125328063965,2.548356056213379,-1.4835500717163086
1770950147004536300,20.427536376953125,6.654439926147461,2.943171739578247,-1.0648061037063599
1770950147023505000,20.4465048828125,7.274180889129639,3.5150563716888428,-0.45942193269729614
1770950147042473500,20.465473388671874,8.097311973571777,3.893122434616089,-0.016749758273363113
1770950147061442300,20.4844423828125,8.879764556884766,3.88594388961792,-0.038285162299871445
1770950147080411000,20.503410888671876,9.592825889587402,3.5605201721191406,-0.550349235534668
1770950147099379500,20.52237939453125,10.107282638549805,3.3092737197875977,-0.7872386574745178
1770950147118348300,20.541348388671874,10.315458297729492,3.5198421478271484,-0.6747759580612183
1770950147137316900,20.56031689453125,10.892128944396973,3.7112679481506348,-0.5910272002220154
1770950147156285400,20.579285400390624,11.657832145690918,3.438486099243164,-0.3756731450557709
1770950147175254000,20.59825390625,12.268001556396484,3.2829527854919434,-0.12442677468061447
1770950147194222800,20.617222900390626,13.189238548278809,3.4121651649475098,0.9547362327575684
1770950147213191400,20.63619140625,13.907085418701172,3.8045880794525146,2.0171494483947754
1770950147232160000,20.655159912109376,13.737195014953613,3.4504501819610596,2.5196423530578613
1770950147251128600,20.674128662109375,13.426127433776855,1.8496519327163696,1.643869161605835
1770950147270097200,20.69309716796875,12.459427833557129,0.729810893535614,0.5024927258491516
1770950147289066000,20.71206591796875,11.787044525146484,0.18903298676013947,0.10767702013254166
1770950147308034600,20.73103466796875,10.863414764404297,0.5072783827781677,0.11964113265275955
1770950147327003100,20.750003173828127,9.497113227844238,1.612762451171875,0.7393822073936462
1770950147345971700,20.7689716796875,8.22413158416748,2.7014968395233154,1.3351950645446777
1770950147364940500,20.7879404296875,7.046862602233887,3.345165967941284,1.3758729696273804
1770950147383909000,20.8069091796875,6.269195556640625,3.34995174407959,0.8925228714942932
1770950147402877700,20.825877685546875,5.7547383308410645,2.8977081775665283,0.4426721930503845
1770950147421846300,20.84484619140625,5.759523868560791,2.4670002460479736,0.040677983313798904
1770950147440814800,20.86381494140625,5.907878875732422,2.311466693878174,-0.5240281820297241
1770950147459783700,20.88278369140625,5.824130535125732,2.3497519493103027,-0.9906286001205444
1770950147478752300,20.901752197265626,5.893522262573242,2.548356056213379,-0.9786644577980042
1770950147497720800,20.920720947265625,6.537191390991211,2.8211379051208496,-0.8111668825149536
1770950147516689400,20.939689453125,7.3675007820129395,3.1250264644622803,-0.8159525394439697
1770950147535658200,20.958658203125,8.61176872253418,3.2781670093536377,-0.7752745151519775
1770950147554626800,20.977626708984374,9.69093132019043,3.239881753921509,-0.916451096534729
1770950147573595400,20.996595458984373,10.394421577453613,3.16331148147583,-1.2993026971817017
1770950147592564200,21.015564208984376,10.533205032348633,3.2231321334838867,-1.6654045581817627
1770950147611532800,21.03453271484375,10.344172477722168,3.31884503364563,-1.6534404754638672
1770950147630501400,21.05350146484375,10.626524925231934,3.31884503364563,-1.7324036359786987
1770950147649470000,21.072469970703125,10.497312545776367,3.5533416271209717,-1.9884356260299683
1770950147668438500,21.0914384765625,10.669595718383789,3.8763725757598877,-2.306680917739868
1770950147687407000,21.110406982421875,11.196017265319824,4.350151538848877,-2.170290231704712
1770950147706376000,21.1293759765625,12.55274772644043,4.299902439117432,-1.5074782371520996
1770950147725344500,21.148344482421876,13.574482917785645,3.7423746585845947,-1.4117653369903564
1770950147744313000,21.16731298828125,13.421341896057129,2.3736801147460938,-1.8592232465744019
1770950147763282000,21.186281982421875,12.823136329650879,1.5002998113632202,-2.943171739578247
1770950147782250500,21.20525048828125,11.26062297821045,1.246660590171814,-3.524627685546875
1770950147801219000,21.224218994140625,9.877572059631348,1.4404792785644531,-3.594019651412964
1770950147820187600,21.243187744140624,9.059226989746094,1.8759729862213135,-2.864208698272705
1770950147839156200,21.26215625,7.901100158691406,1.892722725868225,-1.7228323221206665
1770950147858125000,21.281125,6.965506553649902,2.115255117416382,-0.7393822073936462
1770950147877093600,21.30009375,6.98704195022583,2.5292134284973145,-0.44027936458587646
1770950147896062200,21.319062255859375,6.9104719161987305,2.854637384414673,-0.3852444589138031
1770950147915030800,21.33803076171875,6.4319071769714355,2.806781053543091,-0.2679961323738098
1770950147933999400,21.356999267578125,5.773880958557129,2.6009981632232666,-0.33020952343940735
1770950147952968200,21.37596826171875,5.225924491882324,2.4574289321899414,-1.1724830865859985
1770950147971936800,21.394936767578123,5.123033046722412,2.392822742462158,-2.0315065383911133
1770950147990905300,21.4139052734375,5.2043890953063965,2.1846470832824707,-2.289931297302246
1770950148009874000,21.4328740234375,5.905486106872559,2.2133610248565674,-2.0315065383911133
1770950148028842800,21.4518427734375,6.98704195022583,2.5986053943634033,-1.423729419708252
1770950148047811000,21.47081103515625,8.606983184814453,3.0388846397399902,-0.885344386100769
1770950148066780000,21.48977978515625,10.188638687133789,3.297309637069702,-0.973878800868988
1770950148085748500,21.50874853515625,10.820343971252441,2.9766714572906494,-1.31365966796875
1770950148104717000,21.527717041015624,10.770094871520996,2.4191436767578125,-1.8855443000793457
1770950148123686000,21.546685791015626,11.23908805847168,2.280359983444214,-2.196611166000366
1770950148142654200,21.565654296875,12.351750373840332,2.2947168350219727,-2.287538528442383
1770950148161623000,21.584623046875,12.902099609375,2.0889341831207275,-1.9956140518188477
1770950148180591600,21.603591552734375,13.213166236877441,2.366501569747925,-1.8592232465744019
1770950148199560200,21.622560302734374,13.383056640625,2.9694929122924805,-0.8446664214134216
1770950148218529000,21.641529052734374,14.110475540161133,3.5461630821228027,0.02632104977965355
1770950148237497300,21.660497314453124,13.619946479797363,3.603590965270996,-0.02153540402650833
1770950148256466200,21.679466064453123,12.540783882141113,3.029313564300537,-0.37088751792907715
1770950148275434800,21.698434814453126,11.93061351776123,2.1511476039886475,-0.6963114142417908
1770950148294403300,21.7174033203125,11.358729362487793,1.179661512374878,-0.9451649188995361
1770950148313372000,21.736371826171876,10.73420238494873,0.6699903607368469,-0.7441678643226624
1770950148332340500,21.755340576171875,9.66221809387207,0.9451649188995361,-0.5240281820297241
1770950148351309300,21.774309326171874,8.09970474243164,1.8544375896453857,-0.1818545162677765
1770950148370278000,21.79327783203125,7.779066562652588,3.0029923915863037,0.5096712112426758
1770950148389246500,21.81224658203125,7.393822193145752,3.3308091163635254,0.8805587291717529
1770950148408215000,21.831215087890627,7.283751964569092,3.326023578643799,0.35413774847984314
1770950148427183600,21.85018359375,6.7310099601745605,2.7828526496887207,-0.49292147159576416
1770950148446152400,21.86915234375,6.185446739196777,2.3569302558898926,-0.9116654396057129
1770950148465120800,21.888120849609376,6.415157318115234,2.445464849472046,-1.0193424224853516
1770950148484089600,21.907089599609375,6.812366008758545,2.7182464599609375,-0.7058826684951782
1770950148503058200,21.92605810546875,6.393621921539307,3.053241729736328,-0.6101697683334351
1770950148522026800,21.94502685546875,6.106483459472656,3.3332018852233887,-0.8901300430297852
1770950148540995300,21.963995361328124,6.379265308380127,3.548556089401245,-1.368694543838501
1770950148559964000,21.9829638671875,6.618547439575195,3.7328033447265625,-1.8807586431503296
1770950148578932700,22.0019326171875,7.204789161682129,4.091726779937744,-2.0889341831207275
1770950148597901300,22.0209013671875,8.13798999786377,4.393222332000732,-2.0338993072509766
1770950148616870000,22.039869873046875,9.293723106384277,4.596612453460693,-1.7060825824737549
1770950148635838500,22.05883837890625,10.138389587402344,4.5583271980285645,-1.6366907358169556
1770950148654807000,22.07780712890625,10.176674842834473,4.512863636016846,-2.2468605041503906
1770950148673775600,22.096775634765624,9.695717811584473,4.474578380584717,-2.998206853866577
1770950148692744200,22.115744140625,9.54496955871582,4.924428939819336,-3.675375461578369
1770950148711712800,22.134712646484374,10.210174560546875,5.400600910186768,-3.3332018852233887
1770950148730681600,22.153681640625,11.988041877746582,5.367101192474365,-2.1583259105682373
1770950148749650000,22.17264990234375,13.840085983276367,4.689932346343994,-1.1485549211502075
1770950148768618800,22.19161865234375,13.76351547241211,3.122633457183838,-1.8640087842941284
1770950148787587300,22.21058740234375,12.268001556396484,1.887937068939209,-3.263810157775879
1770950148806556000,22.229555908203125,10.590633392333984,1.6223337650299072,-3.8524444103240967
1770950148825524500,22.2485244140625,9.305686950683594,2.3401806354522705,-3.1800613403320312
1770950148844493000,22.2674931640625,8.58066177368164,3.1106693744659424,-1.5122638940811157
1770950148863461600,22.286461669921874,8.023134231567383,3.4432718753814697,-0.1579262912273407
1770950148882430200,22.30543017578125,7.432106971740723,3.4983067512512207,0.35892340540885925
1770950148901398800,22.324398681640623,7.037291526794434,3.311666488647461,0.5096712112426758
1770950148920367400,22.343367431640626,6.802794933319092,3.0340991020202637,0.5383850932121277
1770950148939336200,22.362336181640625,6.4941205978393555,2.7900311946868896,0.29431718587875366
1770950148958304500,22.381304443359376,5.994020938873291,2.675175666809082,-0.13160525262355804
1770950148977273300,22.4002734375,5.376672267913818,2.66560435295105,-0.4785645306110382
1770950148996242000,22.419241943359374,4.974678039550781,2.854637384414673,-0.7657032608985901
1770950149015210500,22.43821044921875,5.017749309539795,3.0723843574523926,-0.6915257573127747
1770950149034179000,22.457178955078124,5.718846321105957,3.404986619949341,-0.576670229434967
1770950149053147600,22.476147705078127,6.573083877563477,3.7567315101623535,-0.6101697683334351
1770950149072116200,22.4951162109375,7.324429988861084,4.0079779624938965,-0.8231309652328491
1770950149091084800,22.514084716796877,8.178668022155762,4.252045631408691,-1.1629117727279663
1770950149110053400,22.533053466796876,8.518448829650879,4.2831525802612305,-1.3423734903335571
1770950149129022000,22.55202197265625,9.499505996704102,4.321437835693359,-1.2203395366668701
1770950149147990500,22.570990478515625,11.11466121673584,4.07258415222168,-1.160519003868103
1770950149166959000,22.589958984375,11.849257469177246,3.5916268825531006,-1.5194423198699951
1770950149185927700,22.608927734375,12.205788612365723,3.129812002182007,-1.6390835046768188
1770950149204896300,22.627896240234374,12.875778198242188,2.991028308868408,-1.4213366508483887
1770950149223864800,22.64686474609375,14.153546333312988,2.746960401535034,-0.7369893789291382
1770950149242833400,22.66583349609375,14.885749816894531,2.6081767082214355,-0.7441678643226624
1770950149261802200,22.68480224609375,14.780465126037598,2.438286304473877,-0.7417750358581543
1770950149280770600,22.7037705078125,14.60339641571045,1.8687944412231445,-0.6340979933738708
1770950149299739100,22.7227392578125,13.87358570098877,0.8350951075553894,-1.0360921621322632
1770950149318708000,22.7417080078125,13.03370475769043,-0.34217363595962524,-1.373480200767517
1770950149337676300,22.76067626953125,11.94736385345459,-0.6197410821914673,-1.306481122970581
1770950149356644900,22.779644775390626,10.664810180664062,0.4211367964744568,-0.5431707501411438
1770950149375613700,22.79861376953125,9.370293617248535,1.6773686408996582,0.275174617767334
1770950149394582000,22.81758203125,8.147561073303223,2.65842604637146,0.7082754969596863
1770950149413550600,22.836550537109375,7.022934436798096,3.1896326541900635,0.5527420043945312
1770950149432519400,22.85551953125,6.20219612121582,3.266202926635742,0.11246266216039658
1770950149451487700,22.87448779296875,5.615954875946045,2.9216363430023193,-0.06699903309345245
1770950149470456300,22.893456298828124,5.225924491882324,2.6273193359375,-0.12442677468061447
1770950149489425000,22.9124248046875,5.185246467590332,2.682354211807251,-0.15553347766399384
1770950149508393500,22.9313935546875,5.182853698730469,3.0867412090301514,-0.3684946894645691
1770950149527362000,22.950362060546876,5.132604598999023,3.500699520111084,-0.5862415432929993
1770950149546330600,22.96933056640625,5.0943193435668945,3.7950167655944824,-0.8973084688186646
1770950149565299200,22.98829931640625,5.639883041381836,4.01754903793335,-1.093519926071167
1770950149584267800,23.007267822265625,6.58265495300293,4.177868366241455,-1.4691931009292603
1770950149603236400,23.026236328125,7.618747234344482,4.362115859985352,-1.9334007501602173
1770950149622205000,23.045204833984375,8.786444664001465,4.455435752868652,-2.1678972244262695
1770950149641173500,23.064173583984374,9.533005714416504,4.486542224884033,-2.4406790733337402
1770950149660142000,23.08314208984375,10.246066093444824,4.328616142272949,-2.8211379051208496
1770950149679110700,23.102110595703124,10.841879844665527,4.1491546630859375,-3.366701364517212
1770950149698079200,23.121079345703127,11.586047172546387,4.000799655914307,-3.7974095344543457
1770950149717047800,23.1400478515625,12.602996826171875,4.180261135101318,-4.613361835479736
1770950149736016400,23.159016357421876,12.64606761932373,4.4650068283081055,-4.716253280639648
1770950149754985000,23.17798486328125,13.337593078613281,4.907679080963135,-3.902693748474121
1770950149773953300,23.196953369140626,14.488540649414062,4.938786029815674,-2.9934210777282715
1770950149792921900,23.215921875,14.732608795166016,3.548556089401245,-3.2063822746276855
1770950149811890400,23.234890380859376,13.00499153137207,2.0243279933929443,-4.29033088684082
1770950149830859000,23.25385888671875,10.846665382385254,1.3950155973434448,-4.876572608947754
1770950149849827600,23.27282763671875,9.183652877807617,1.7180466651916504,-4.096512317657471
1770950149868796200,23.291796142578125,9.008976936340332,2.342573404312134,-2.014756679534912
1770950149887764700,23.3107646484375,9.267401695251465,2.7637102603912354,-0.20578274130821228
1770950149906733300,23.3297333984375,9.059226989746094,2.746960401535034,0.5670989751815796
1770950149925702000,23.348701904296874,7.9489569664001465,2.4191436767578125,0.5312066078186035
1770950149944670500,23.36767041015625,6.604190349578857,2.122433662414551,0.31824541091918945
1770950149963638800,23.386638671875,5.6590256690979,2.007578134536743,0.20099709928035736
1770950149982607400,23.405607421875,4.780859470367432,2.069791555404663,0.1818545162677765
1770950150001576000,23.424575927734374,4.18983268737793,2.4574289321899414,0.059820566326379776
1770950150020544500,23.44354443359375,3.7016966342926025,3.13220477104187,0
1770950150039513000,23.46251318359375,3.665804386138916,3.7806596755981445,-0.064606212079525
1770950150058481700,23.481481689453126,4.615755081176758,4.350151538848877,-0.2392822653055191
1770950150077450200,23.5004501953125,5.812166213989258,4.59421968460083,-0.2991028428077698
1770950150096418800,23.519418701171876,6.922435760498047,4.900500774383545,-0.2632105052471161
1770950150115387100,23.53838720703125,8.279166221618652,5.2283172607421875,-0.28953152894973755
1770950150134355700,23.557355712890626,9.705288887023926,5.283352375030518,-0.42831525206565857
1770950150153324300,23.57632421875,10.454241752624512,5.154139995574951,-0.8398807644844055
1770950150172292900,23.59529296875,10.928021430969238,4.88853645324707,-1.1461620330810547
1770950150191261200,23.61426123046875,11.552547454833984,4.713860511779785,-1.3758729696273804
1770950150210229800,23.633229736328126,11.684152603149414,4.54636287689209,-1.3806586265563965
1770950150229198300,23.6521982421875,12.145967483520508,4.278367042541504,-1.397408366203308
1770950150248167000,23.6711669921875,13.055240631103516,3.996013879776001,-0.760917603969574
1770950150267135500,23.690135498046875,13.825729370117188,4.022335052490234,-0.1746760457754135
1770950150286103800,23.709103759765625,13.294522285461426,4.0797624588012695,0.13878370821475983
1770950150305072400,23.728072265625,12.885350227355957,3.3164522647857666,0.062213387340307236
1770950150324041000,23.747041015625,12.531211853027344,2.0171494483947754,-0.638883650302887
1770950150343009500,23.766009521484374,11.334800720214844,1.0097711086273193,-1.495514154434204
1770950150361978000,23.78497802734375,9.865608215332031,0.8135597109794617,-1.4500504732131958
1770950150380946400,23.803946533203124,8.920442581176758,1.7132610082626343,-0.41874396800994873
1770950150399915000,23.8229150390625,9.011369705200195,2.957528829574585,0.8781659007072449
1770950150418883600,23.841883544921874,9.193224906921387,3.7806596755981445,1.6366907358169556
1770950150437852200,23.86085205078125,8.389236450195312,3.88594388961792,1.5314065217971802
1770950150456820500,23.879820556640624,6.798008918762207,3.562912940979004,0.9068797826766968
1770950150475789000,23.8987890625,5.400600910186768,3.3020951747894287,0.1579262912273407
1770950150494757600,23.917757568359374,4.579862594604492,3.211168050765991,-0.34695929288864136
1770950150513726200,23.936726318359376,4.42193603515625,3.304488182067871,-0.5216353535652161
1770950150532694500,23.955694580078124,4.587040901184082,3.5581271648406982,-0.5647061467170715
1770950150551663000,23.9746630859375,4.95074987411499,3.8739798069000244,-0.8015955686569214
1770950150570631700,23.993631591796873,5.601597785949707,4.06540584564209,-1.1437692642211914
1770950150589600300,24.012600341796876,6.26440954208374,4.278367042541504,-1.2897313833236694
1770950150608568600,24.031568603515623,6.929614543914795,4.816751956939697,-1.306481122970581
1770950150627537200,24.050537109375,7.341179847717285,5.359922885894775,-1.4787644147872925
1770950150646505700,24.069505615234377,8.669196128845215,5.355136871337891,-2.196611166000366
1770950150665474300,24.088474365234376,9.705288887023926,4.855037212371826,-2.7972097396850586
1770950150684443000,24.10744287109375,10.64806079864502,4.376472473144531,-3.407379388809204
1770950150703411200,24.1264111328125,11.10748291015625,4.244867324829102,-4.024727821350098
1770950150722379800,24.1453798828125,11.404192924499512,4.237689018249512,-4.419543266296387
1770950150741348000,24.16434814453125,12.569497108459473,4.572684288024902,-4.7234320640563965
1770950150760316700,24.183316650390626,12.619746208190918,5.20678186416626,-4.366901397705078
1770950150779285200,24.20228515625,13.186845779418945,5.905486106872559,-3.617947816848755
1770950150798253600,24.221253662109376,13.72523021697998,5.501099109649658,-2.7086751461029053
1770950150817222100,24.24022216796875,13.301701545715332,3.9361932277679443,-3.13220477104187
1770950150836190700,24.259190673828126,11.006983757019043,2.713460922241211,-4.060619831085205
1770950150855159300,24.2781591796875,8.161917686462402,2.414358139038086,-4.59421968460083
1770950150874127600,24.297127685546876,6.405586242675781,2.981456995010376,-4.460221290588379
1770950150893096200,24.31609619140625,6.436692714691162,3.6131622791290283,-2.9838497638702393
1770950150912064500,24.335064453125,8.032705307006836,3.8213376998901367,-1.3615161180496216
1770950150931033000,24.354033203125,9.049654960632324,3.6059837341308594,-0.21774685382843018
1770950150950001700,24.373001708984376,8.877371788024902,3.2829527854919434,0.2727817893028259
1770950150968970200,24.39197021484375,7.630711555480957,3.290131092071533,0.24406790733337402
1770950150987938600,24.4109384765625,6.340980052947998,3.4672000408172607,0.20578274130821228
1770950151006907100,24.4299072265625,5.682953834533691,3.594019651412964,0.0023928226437419653
1770950151025875500,24.44887548828125,5.446064472198486,3.649054527282715,-0.4618147611618042
1770950151044844000,24.467843994140626,5.072783946990967,3.541377544403076,-0.8614161610603333
1770950151063812600,24.4868125,5.032105922698975,3.6993038654327393,-1.0289137363433838
1770950151082781000,24.505781005859376,5.2737812995910645,4.161118507385254,-0.9332008361816406
