time,seconds_elapsed,z,y,x
1770952036930238700,0.14223876953125,0,0,0
1770952036958694700,0.170694580078125,0.44588661193847656,0.5549049377441406,-0.37032032012939453
1770952036977665500,0.18966552734375,1.07960844039917,-0.6909399032592773,0.5466740727424622
1770952036996636200,0.20863623046875,1.5899243354797363,-0.7916421890258789,0.8745903372764587
1770952037015606800,0.227606689453125,0.9755706787109375,-0.5832509994506836,0.4284771680831909
1770952037034577400,0.246577392578125,-0.2394566535949707,-1.1178202629089355,-0.43970924615859985
1770952037053548300,0.26554833984375,-0.32320690155029297,-0.5000710487365723,0.525759220123291
1770952037072519000,0.284518798828125,0.09581518173217773,0.8032746315002441,0.8472709655761719
1770952037091489500,0.303489501953125,0.3410196304321289,0.37326622009277344,0.6950879693031311
1770952037110460400,0.32246044921875,0.8381795883178711,-0.8337416648864746,0.7263168692588806
1770952037129431000,0.34143115234375,-0.3674588203430176,-0.8902587890625,0.7064933776855469
1770952037148401700,0.360401611328125,-0.3648815155029297,0.1777949333190918,-0.02618633210659027
1770952037167372300,0.379372314453125,-0.41858577728271484,-0.21618032455444336,0.2450239658355713
1770952037186343200,0.39834326171875,0.05331993103027344,-0.5431056022644043,0.7936348915100098
1770952037205313800,0.417313720703125,0.38467836380004883,-0.6035604476928711,0.5769405364990234
1770952037224284700,0.43628466796875,0.830235481262207,-0.48757028579711914,0.04912486672401428
1770952037243255300,0.45525537109375,1.18113374710083,0.6075315475463867,-2.1867003440856934
1770952037262226000,0.474225830078125,0.33449602127075195,0.6101875305175781,-0.08551272749900818
1770952037281196800,0.49319677734375,-0.5665197372436523,-0.13574934005737305,0.1753348708152771
1770952037300167700,0.512167724609375,-0.9380640983581543,-0.904109001159668,0.9317672252655029
1770952037319138300,0.53113818359375,0.29534196853637695,-0.8995471000671387,0.36976897716522217
1770952037338109000,0.55010888671875,1.8900413513183594,0.9352059364318848,-0.9416504502296448
1770952037357079800,0.569079833984375,0.8171563148498535,1.6904473304748535,-0.8829585313796997
1770952037376050700,0.58805078125,1.0042805671691895,0.32568359375,0.17865264415740967
1770952037395021300,0.607021240234375,-0.05703020095825195,-2.2419919967651367,-0.7971957921981812
1770952037413992200,0.6259921875,-0.8519988059997559,0.07218503952026367,-0.5314699411392212
1770952037432962800,0.644962890625,-1.9660148620605469,0.3079795837402344,-0.45720696449279785
1770952037451933700,0.66393359375,-2.040773391723633,0.4148521423339844,-0.8768142461776733
1770952037470904600,0.682904541015625,-0.470461368560791,0.9946036338806152,0.07045769691467285
1770952037489875200,0.701875244140625,0.21490097045898438,0.8550772666931152,0.6462985277175903
1770952037508846000,0.72084619140625,-0.613314151763916,0.13087701797485352,-0.10012543201446533
1770952037527816700,0.739816650390625,-1.6250481605529785,0.17617511749267578,-0.599151611328125
1770952037546787600,0.75878759765625,-0.8486299514770508,0.8993802070617676,0.28333139419555664
1770952037565758500,0.777758544921875,-0.5292854309082031,0.1318044662475586,-0.14693200588226318
1770952037584729000,0.79672900390625,-0.2726593017578125,0.2024693489074707,0.3469254970550537
1770952037603700000,0.815699951171875,0.2946357727050781,0.8752470016479492,0.26917529106140137
1770952037622670800,0.8346708984375,0.1432638168334961,0.06715250015258789,0.025780439376831055
1770952037641641500,0.853641357421875,-0.6246500015258789,0.15063714981079102,-0.22499632835388184
1770952037660612400,0.8726123046875,-0.4876561164855957,0.012708663940429688,-0.18246150016784668
1770952037679583200,0.891583251953125,0.24434757232666016,-0.2562999725341797,-0.40372204780578613
1770952037698554000,0.91055419921875,0.45807456970214844,-0.20931768417358398,0.2671205997467041
1770952037717525000,0.92952490234375,0.10199356079101562,0.08015251159667969,0.3610970973968506
1770952037736495600,0.94849560546875,-0.09572029113769531,-0.18889760971069336,0.023668766021728516
1770952037755466500,0.967466552734375,-0.4851102828979492,0.16175031661987305,0.14332032203674316
1770952037774437400,0.986437255859375,-1.0369677543640137,0.2871098518371582,-0.11901211738586426
1770952037793408300,1.005408203125,-0.8901381492614746,-0.46293115615844727,-0.6001687049865723
1770952037812379100,1.024379150390625,-0.3047046661376953,-0.4945340156555176,-0.4679999351501465
1770952037831349800,1.043349853515625,0.5868978500366211,0.2668037414550781,-0.06722760200500488
1770952037850320600,1.062320556640625,0.05457115173339844,-0.1399555206298828,0.02237868309020996
1770952037869291800,1.081291748046875,-0.8429064750671387,-0.43814802169799805,-0.3307664394378662
1770952037888262400,1.100262451171875,-1.1709518432617188,-0.24591541290283203,-0.7408431768417358
1770952037907233300,1.1192333984375,-0.13253259658813477,-0.21696233749389648,-0.2035214900970459
1770952037926204200,1.1382041015625,1.0977678298950195,-0.9041261672973633,0.7660653591156006
1770952037945175000,1.157175048828125,0.08535146713256836,-0.848118782043457,0.08049535751342773
1770952037964146000,1.17614599609375,-1.504817008972168,-0.005844593048095703,-2.287421703338623
1770952037983116800,1.19511669921875,-1.8434104919433594,-2.2425570487976074,-0.8929786682128906
1770952038002087700,1.214087646484375,1.1740050315856934,-0.8120570182800293,2.547602891921997
1770952038021058600,1.23305859375,4.1886186599731445,0.4242825508117676,3.006662368774414
1770952038040029400,1.252029541015625,4.141724109649658,1.1524043083190918,5.127571105957031
1770952038059000300,1.271000244140625,-3.2467474937438965,2.79036808013916,-4.130138874053955
1770952038077971200,1.28997119140625,-3.755270481109619,-3.8198862075805664,-1.4097211360931396
1770952038096942000,1.308942138671875,-0.9966549873352051,-2.0502068996429443,-2.7190799713134766
1770952038115913000,1.327912841796875,-0.8625321388244629,-3.0697219371795654,-2.454680919647217
1770952038134883800,1.3468837890625,-4.249597549438477,-2.7861905097961426,-2.170370101928711
1770952038153855000,1.36585498046875,-6.218294620513916,-1.8417363166809082,-0.8115086555480957
1770952038172825600,1.38482568359375,-4.538059234619141,-2.4845268726348877,-1.9251766204833984
1770952038191796700,1.403796630859375,-4.706270694732666,-2.4048051834106445,-1.2013521194458008
1770952038210767600,1.422767578125,0.5377941131591797,-3.330775737762451,-2.3721814155578613
1770952038229738500,1.441738525390625,-6.433586120605469,-3.4270052909851074,0.11763477325439453
1770952038248709400,1.46070947265625,-4.10664701461792,-2.790109157562256,2.2287187576293945
1770952038267680500,1.479680419921875,0.43395495414733887,-1.5709412097930908,2.4320831298828125
1770952038286651100,1.498651123046875,1.7389392852783203,-0.6665728092193604,2.3902854919433594
1770952038305622300,1.517622314453125,3.085145950317383,0.4616919755935669,2.9239091873168945
1770952038324593200,1.53659326171875,0.512688159942627,0.7823432683944702,3.9934654235839844
1770952038343564000,1.55556396484375,20.938220977783203,20.035308837890625,29.088050842285156
1770952038362535200,1.57453515625,7.079627990722656,0.648179829120636,5.5099897384643555
1770952038381506000,1.593506103515625,-2.272496223449707,-2.402401924133301,1.9142775535583496
1770952038400477000,1.612476806640625,-3.1614675521850586,-0.3585221767425537,1.7519803047180176
1770952038419447800,1.63144775390625,-4.449179649353027,-0.6602053642272949,0.819920539855957
1770952038438419000,1.6504189453125,-7.65455961227417,-3.1418275833129883,-3.679333448410034
1770952038457389800,1.669389892578125,-2.8906850814819336,-5.552245140075684,-2.576122283935547
1770952038476360700,1.688360595703125,2.819857597351074,-2.475625514984131,0.7993698120117188
1770952038495331800,1.707331787109375,2.1749258041381836,0.5342574119567871,2.2731008529663086
1770952038514302700,1.726302734375,0.1960306167602539,2.7502732276916504,3.4234018325805664
1770952038533273600,1.745273681640625,0.8799839019775391,3.621220111846924,3.377981185913086
1770952038552244700,1.76424462890625,3.177574872970581,3.911160469055176,1.970543384552002
1770952038571215600,1.783215576171875,3.139186143875122,3.6872715950012207,-1.41054105758667
1770952038590186500,1.8021865234375,4.998627662658691,-0.7734990119934082,-4.2089385986328125
1770952038609157600,1.82115771484375,6.064913749694824,-0.4507756233215332,-3.0836126804351807
1770952038628128500,1.84012841796875,4.256786346435547,0.2149362564086914,-1.6243994235992432
1770952038647099600,1.859099609375,0.12329721450805664,0.6078424453735352,0.3558788299560547
1770952038666070500,1.878070556640625,0.07433652877807617,1.1127419471740723,2.213446855545044
1770952038685041700,1.897041748046875,0.9165537357330322,-0.5177698135375977,2.672262191772461
1770952038704012500,1.916012451171875,0.3186216354370117,0.578984260559082,2.9583208560943604
1770952038722983400,1.9349833984375,-0.8471572399139404,0.8200483322143555,2.7864725589752197
1770952038741954600,1.95395458984375,0.1555020809173584,0.7314004898071289,2.5311408042907715
1770952038760925400,1.972925537109375,0.973280668258667,0.3581829071044922,2.5340304374694824
1770952038779896600,1.991896484375,-0.07488775253295898,0.040203094482421875,1.628915548324585
1770952038798867500,2.010867431640625,-1.3982900381088257,-0.7718753814697266,0.9040391445159912
1770952038817838600,2.029838623046875,-1.0131903886795044,-0.8179740905761719,-0.14513087272644043
1770952038836809500,2.0488095703125,21.07921600341797,7.137055397033691,26.97906494140625
1770952038855780600,2.067780517578125,-7.955862045288086,-2.2033615112304688,-1.461990237236023
1770952038874751500,2.08675146484375,-3.283417224884033,-1.1321516036987305,-2.6428539752960205
1770952038893722600,2.10572265625,1.8442511558532715,-0.8421669006347656,0.4612386226654053
1770952038912693800,2.12469384765625,2.3388423919677734,-2.5290756225585938,-0.5261008739471436
1770952038931664600,2.14366455078125,-2.9340953826904297,-5.200172424316406,1.7775683403015137
1770952038950635800,2.1626357421875,-0.9124810695648193,-4.2924957275390625,1.741178035736084
1770952038969606700,2.181606689453125,-0.37192797660827637,-1.8584461212158203,0.8123526573181152
1770952038988577800,2.200577880859375,-1.8491337299346924,1.3186588287353516,3.3636436462402344
1770952039007548700,2.219548583984375,1.1871684789657593,2.5346899032592773,2.815037488937378
1770952039026519800,2.238519775390625,2.810464382171631,2.653195858001709,2.6937105655670166
1770952039045491000,2.257490966796875,2.709944725036621,1.5654973983764648,0.5677778720855713
1770952039064461800,2.2764619140625,1.8985453844070435,-0.4104423522949219,-1.081184983253479
1770952039083433000,2.295432861328125,0.1621994972229004,-0.9585914611816406,-1.4196842908859253
1770952039102403800,2.31440380859375,1.8197709321975708,0.1587238311767578,-5.486466407775879
1770952039121375000,2.333375,-0.162164568901062,0.521723747253418,-2.4465792179107666
1770952039140346000,2.35234619140625,-2.874817371368408,0.5825567245483398,0.6811408996582031
1770952039159317200,2.371317138671875,-3.5577187538146973,-0.012761116027832031,0.41274094581604004
1770952039178288000,2.3902880859375,-5.084230899810791,0.4869709014892578,0.6967384815216064
1770952039197259300,2.40925927734375,1.337802529335022,-0.5079069137573242,21.85121726989746
1770952039216230400,2.42823046875,-6.157395839691162,3.6159138679504395,-5.653114318847656
1770952039235201500,2.447201416015625,1.82413649559021,-2.2046632766723633,1.5112435817718506
1770952039254172400,2.46617236328125,3.6712493896484375,-0.7799282073974609,-4.2406792640686035
1770952039273143600,2.4851435546875,-0.7121163606643677,3.6760473251342773,-4.608073711395264
1770952039292114700,2.50411474609375,4.342783451080322,-5.431306838989258,-1.7154231071472168
1770952039311085800,2.5230859375,1.5393617153167725,-5.520970344543457,2.18876314163208
1770952039330056700,2.542056640625,0.2828054428100586,-2.382512092590332,1.1436121463775635
1770952039349027800,2.56102783203125,0.44123518466949463,-1.2766389846801758,0.6512598991394043
1770952039367999000,2.5799990234375,0.15436899662017822,-0.5986423492431641,0.4654664993286133
1770952039386970000,2.59897021484375,-0.4753563404083252,0.15479087829589844,0.7828946113586426
1770952039405941200,2.617941162109375,-0.4389982223510742,-0.2607688903808594,0.658379316329956
1770952039424912100,2.636912109375,-0.415895938873291,-0.4932680130004883,0.6455771923065186
1770952039443883300,2.65588330078125,-0.11053180694580078,-0.42405128479003906,0.7322704792022705
1770952039462854400,2.6748544921875,-0.34604859352111816,-0.09606170654296875,0.9164364337921143
1770952039481825500,2.693825439453125,-0.5229690074920654,0.12813377380371094,0.7683041095733643
1770952039500796700,2.712796630859375,-0.1557629108428955,0.2644500732421875,0.5752265453338623
1770952039519767800,2.731767822265625,0.03566932678222656,0.3173713684082031,0.7011387348175049
1770952039538739000,2.750739013671875,3.4921019077301025,4.933048248291016,3.90657377243042
1770952039557709800,2.769709716796875,5.8183393478393555,0.08914756774902344,6.349630355834961
1770952039576681000,2.788680908203125,-1.3662405014038086,-1.8023900985717773,1.2840793132781982
1770952039595652000,2.807652099609375,-0.5168514251708984,0.7280197143554688,0.13878953456878662
1770952039614623200,2.826623291015625,-0.623638391494751,-0.014418601989746094,0.7826173305511475
1770952039633594400,2.845594482421875,-0.3103640079498291,-0.19112110137939453,0.8543771505355835
1770952039652565500,2.8645654296875,0.1986382007598877,0.18636703491210938,0.17001616954803467
1770952039671536600,2.88353662109375,0.3507976531982422,-0.4663267135620117,0.3791489601135254
1770952039690507800,2.9025078125,0.2636291980743408,-0.30292701721191406,0.2700592279434204
1770952039709479000,2.92147900390625,0.1101524829864502,-0.016663551330566406,0.06904995441436768
1770952039728450000,2.940449951171875,-0.16408014297485352,-0.20981121063232422,0.3203645944595337
1770952039747421000,2.9594208984375,-0.09641790390014648,-0.0044078826904296875,-0.1254260540008545
1770952039766392300,2.978392333984375,0.5846037864685059,0.3355531692504883,0.3214297294616699
1770952039785363500,2.997363525390625,-0.1965019702911377,0.4887838363647461,0.232582688331604
1770952039804334600,3.01633447265625,-0.4314136505126953,0.4232463836669922,-0.026613354682922363
1770952039823305700,3.0353056640625,0.23862075805664062,0.30629920959472656,0.23243582248687744
1770952039842276900,3.05427685546875,0.635751485824585,0.5783634185791016,0.06575000286102295
1770952039861248000,3.073248046875,0.03523063659667969,0.40560245513916016,0.09828877449035645
1770952039880219100,3.09221923828125,0.19603466987609863,0.2899799346923828,0.009687423706054688
1770952039899190300,3.111190185546875,0.45926403999328613,0.4888935089111328,0.05171811580657959
1770952039918161400,3.130161376953125,0.1873166561126709,0.5172405242919922,0.14752185344696045
1770952039937132500,3.149132568359375,-0.8186101913452148,-0.3002471923828125,0.1267298460006714
1770952039956103700,3.168103759765625,0.1656193733215332,-0.47367191314697266,-0.41736114025115967
1770952039975074800,3.18707470703125,1.0407171249389648,-0.7436122894287109,-0.32267677783966064
1770952039994046000,3.2060458984375,-0.5834832191467285,-0.4308910369873047,-0.020458221435546875
1770952040013017000,3.22501708984375,-0.3384411334991455,0.07400894165039062,-0.3148834705352783
1770952040031988200,3.24398828125,0.09246611595153809,-0.1556100845336914,-0.851026177406311
1770952040050959600,3.262959716796875,-0.21377873420715332,-0.7025203704833984,-0.18961775302886963
1770952040069930800,3.2819306640625,-0.49394869804382324,-0.39129066467285156,-0.5187976360321045
1770952040088902000,3.30090185546875,1.14351487159729,-0.12091827392578125,-0.39518773555755615
1770952040107873000,3.319873046875,-0.08425068855285645,-0.12723445892333984,0.26750636100769043
1770952040126844200,3.33884423828125,0.02141594886779785,0.5988779067993164,-0.7731543779373169
1770952040145815300,3.357815185546875,-0.016568660736083984,0.2944498062133789,0.04373574256896973
1770952040164786400,3.376786376953125,0.12630486488342285,0.6691989898681641,0.45367860794067383
1770952040183757800,3.3957578125,0.45177626609802246,0.5177345275878906,-0.13830292224884033
1770952040202729000,3.41472900390625,-0.07200312614440918,0.22029876708984375,0.14385104179382324
1770952040221700000,3.4337001953125,-1.2122018337249756,-0.07960319519042969,-0.08679854869842529
1770952040240671200,3.452671142578125,0.6727275848388672,-0.2329568862915039,-0.11426401138305664
1770952040259642400,3.471642333984375,-0.6868534088134766,-0.6888761520385742,0.32807374000549316
1770952040278613800,3.49061376953125,-0.5934960842132568,-0.5909900665283203,-0.8406152129173279
1770952040297585000,3.5095849609375,1.076850175857544,-0.03237438201904297,0.2737712860107422
1770952040316556000,3.52855615234375,-0.6516396999359131,0.4317913055419922,0.00015366077423095703
1770952040335527200,3.547527099609375,0.6464357376098633,-0.08809661865234375,-0.4193739891052246
1770952040354498300,3.566498291015625,0.8651750087738037,0.0998239517211914,0.29662859439849854
1770952040373469700,3.5854697265625,0.09009051322937012,0.1600189208984375,-0.34515082836151123
1770952040392440800,3.60444091796875,-0.09791779518127441,0.3332023620605469,-0.14287757873535156
1770952040411412000,3.623411865234375,0.5876717567443848,-0.055683135986328125,0.12048912048339844
1770952040430383000,3.642383056640625,0.0255892276763916,0.08691024780273438,-0.30430173873901367
1770952040449354500,3.6613544921875,-0.37671852111816406,-0.6368808746337891,0.1525043249130249
1770952040468325600,3.68032568359375,-0.2579631805419922,0.0838460922241211,0.12429451942443848
1770952040487296800,3.699296875,-0.6767373085021973,-0.14737510681152344,-0.4175910949707031
1770952040506268200,3.71826806640625,-0.22517657279968262,0.20835590362548828,0.11198258399963379
1770952040525239300,3.7372392578125,0.9544351100921631,0.10210800170898438,-0.40345633029937744
1770952040544210400,3.75621044921875,-0.5699598789215088,-0.42896270751953125,0.03833305835723877
1770952040563181600,3.775181640625,-0.29460763931274414,-0.07684993743896484,-0.09022247791290283
1770952040582153000,3.794153076171875,0.6967258453369141,0.28037357330322266,-0.21345174312591553
1770952040601124000,3.8131240234375,-0.7500126361846924,0.5271434783935547,0.3197368383407593
1770952040620095500,3.832095458984375,-0.4307370185852051,0.15997600555419922,-0.26262807846069336
1770952040639066600,3.851066650390625,0.5728590488433838,-0.5974445343017578,-0.7924113273620605
1770952040667523300,3.8795234375,-0.48615574836730957,-0.2508697509765625,0.07981181144714355
1770952040686494700,3.89849462890625,-0.12324929237365723,0.3646421432495117,-0.559843897819519
1770952040705465900,3.9174658203125,0.11781692504882812,0.5366382598876953,-0.23240387439727783
1770952040724437000,3.93643701171875,-0.31780552864074707,-0.017549514770507812,-0.33662116527557373
1770952040743408400,3.955408447265625,-0.2789881229400635,-0.650303840637207,-1.179263710975647
1770952040762379500,3.974379638671875,0.9937717914581299,-0.8254728317260742,-0.31119847297668457
1770952040781351000,3.993350830078125,-0.6294689178466797,0.029937744140625,-1.0420031547546387
1770952040800322000,4.012322021484375,0.47460079193115234,-0.3150911331176758,-0.5210089087486267
1770952040819293200,4.031293212890625,0.7742362022399902,0.3190641403198242,-0.6653002500534058
1770952040838264600,4.0502646484375,-0.48371267318725586,-0.8206777572631836,-0.8069405555725098
1770952040857235700,4.069235595703125,0.45166659355163574,-0.079742431640625,0.016065120697021484
1770952040876206800,4.088206787109375,0.20317435264587402,0.0026617050170898438,-0.2623152732849121
1770952040895178200,4.10717822265625,-0.5433099269866943,-0.006136894226074219,-0.5027385950088501
1770952040914149400,4.1261494140625,0.06826281547546387,-0.3549509048461914,-0.07130229473114014
1770952040933120800,4.145120849609375,0.3227086067199707,-0.8518886566162109,-0.5803124904632568
1770952040952092000,4.164091796875,0.05023050308227539,-0.6302900314331055,0.07647979259490967
1770952040971063300,4.183063232421875,0.4593508243560791,-0.2860832214355469,-0.3271803855895996
1770952040990034400,4.202034423828125,-0.376446008682251,-0.5085973739624023,-0.3519606590270996
1770952041009005600,4.221005615234375,0.23833703994750977,0.1523599624633789,-0.8261635303497314
1770952041027977000,4.23997705078125,0.13008809089660645,0.05733299255371094,-0.8086371421813965
1770952041046948000,4.258947998046875,0.07495689392089844,-0.3010692596435547,-0.7103679776191711
1770952041065919500,4.27791943359375,-0.1356189250946045,-0.20886993408203125,-0.7085437178611755
1770952041084890600,4.296890625,-0.4231834411621094,0.913823127746582,-0.3428318500518799
1770952041103862000,4.315862060546875,-0.9018046855926514,0.7009563446044922,-0.8450571298599243
1770952041122833200,4.334833251953125,-0.15678167343139648,-0.036705970764160156,-0.7512243986129761
1770952041141804500,4.353804443359375,0.07830667495727539,0.1242523193359375,-0.7941544055938721
1770952041160775700,4.372775634765625,-0.5186638832092285,0.23540210723876953,-1.1462808847427368
1770952041179747000,4.3917470703125,0.1666102409362793,0.26192283630371094,-0.5206152200698853
1770952041198718200,4.41071826171875,0.11480021476745605,0.13850784301757812,-1.2506896257400513
1770952041217689300,4.429689453125,0.5925745964050293,0.10033893585205078,-0.8234024047851562
1770952041236660700,4.44866064453125,0.2632310390472412,0.5343418121337891,-0.5957408547401428
1770952041255632100,4.467632080078125,-0.973503589630127,0.3743457794189453,-0.9803515672683716
1770952041274603300,4.486603271484375,-0.49154186248779297,0.40494441986083984,-0.60528564453125
1770952041293574700,4.50557470703125,-0.6583781242370605,-0.5006227493286133,-1.5076303482055664
1770952041322031400,4.53403125,-0.838451623916626,-0.2661561965942383,-0.4651848077774048
1770952041341002800,4.553002685546875,-0.704883337020874,0.16471576690673828,-1.2625468969345093
1770952041359974000,4.571973876953125,0.09711098670959473,-0.2730293273925781,-1.0421143770217896
1770952041378945300,4.5909453125,-0.12957334518432617,-0.4941730499267578,-0.8568764328956604
1770952041397916700,4.609916748046875,0.43338465690612793,-0.6104946136474609,-1.462304711341858
1770952041416887800,4.6288876953125,0.8364934921264648,-0.35626792907714844,-1.0526249408721924
1770952041435859000,4.64785888671875,-0.10586762428283691,-0.1516408920288086,-1.470630407333374
1770952041454830300,4.666830322265625,0.37675046920776367,-0.3570899963378906,-1.5493760108947754
1770952041473801700,4.6858017578125,0.354764461517334,-0.4064617156982422,-1.068980097770691
1770952041492772900,4.70477294921875,-0.062235116958618164,-0.4219856262207031,-1.0439560413360596
1770952041521229800,4.733229736328125,0.1454479694366455,-0.5268497467041016,-1.2440869808197021
1770952041540201200,4.752201171875,0.16859054565429688,-0.6357536315917969,-1.1453735828399658
1770952041578143700,4.790143798828125,0.17834806442260742,-0.11962604522705078,-0.9821857810020447
1770952041597115000,4.809114990234375,-0.37936973571777344,0.5857982635498047,-0.8750945925712585
1770952041616086300,4.828086181640625,-0.03311276435852051,0.8455295562744141,-0.7544909715652466
1770952041635057400,4.847057373046875,0.5232338905334473,0.8854198455810547,-0.9855303764343262
1770952041654028800,4.86602880859375,-0.0877988338470459,0.35834789276123047,-0.9964839220046997
1770952041673000200,4.885000244140625,-0.9244043827056885,0.48294544219970703,-1.2101696729660034
1770952041691971300,4.903971435546875,-0.4748115539550781,-0.00194549560546875,-1.0283182859420776
1770952041710942700,4.922942626953125,-0.77880859375,0.5692033767700195,-0.482787549495697
1770952041739399700,4.951399658203125,-0.566570520401001,-0.9636783599853516,-1.3922070264816284
1770952041758370800,4.970370849609375,0.7645018100738525,-0.9039163589477539,-0.7246471643447876
1770952041777342000,4.989342041015625,-0.09841728210449219,-0.5267658233642578,-1.1669087409973145
1770952041796313300,5.008313232421875,0.1474621295928955,-0.6337413787841797,-0.27714622020721436
1770952041815284700,5.02728466796875,1.0040881633758545,-0.047377586364746094,-0.36226212978363037
1770952041834256100,5.046256103515625,-0.06133675575256348,-0.13518142700195312,-1.7412828207015991
1770952041853227300,5.065227294921875,0.47121334075927734,-1.016718864440918,-1.399243950843811
1770952041872198700,5.08419873046875,1.0933127403259277,-0.6927461624145508,-0.8082298040390015
1770952041891169800,5.103169677734375,0.7810637950897217,-0.1999988555908203,-1.3492321968078613
1770952041910141200,5.12214111328125,-0.8130495548248291,-0.24689292907714844,-0.39932799339294434
1770952041929112300,5.1411123046875,-0.2767360210418701,-0.3076763153076172,-1.362333059310913
1770952041948083700,5.160083740234375,0.24729585647583008,-0.03711509704589844,-1.466177225112915
1770952041967055000,5.17905517578125,-0.8140347003936768,-0.5334100723266602,-0.8941559195518494
1770952041986026200,5.198026123046875,0.5724093914031982,-0.1418476104736328,-1.3326566219329834
1770952042004997600,5.21699755859375,-0.5707950592041016,-0.07306098937988281,-0.44183576107025146
1770952042023968800,5.23596875,0.35509681701660156,0.47678184509277344,-1.7692852020263672
1770952042042940200,5.254940185546875,0.01856517791748047,0.18766498565673828,-0.7351683974266052
1770952042061911600,5.27391162109375,-0.31824731826782227,1.1144800186157227,-0.3478081226348877
1770952042080882700,5.292882568359375,-0.18747615814208984,0.9966764450073242,-1.1113595962524414
1770952042099854000,5.31185400390625,0.03694653511047363,0.09435367584228516,-0.9406129717826843
1770952042118825500,5.330825439453125,-1.0961451530456543,-0.76409912109375,-1.1985729932785034
1770952042137796600,5.349796630859375,-0.9128885269165039,-0.48201942443847656,-1.0887441635131836
1770952042156768000,5.36876806640625,1.0490097999572754,-0.32427406311035156,-0.85414719581604
1770952042175739100,5.3877392578125,0.5835766792297363,0.2408618927001953,-1.2428746223449707
1770952042194710500,5.40671044921875,-1.4007856845855713,0.04798126220703125,-0.6096599698066711
1770952042213682000,5.425681884765625,0.5099513530731201,-0.5266866683959961,-1.1363803148269653
1770952042232653300,5.4446533203125,1.0397357940673828,-0.6140279769897461,-1.3953957557678223
1770952042251624400,5.46362451171875,-0.7126660346984863,1.1038713455200195,-0.7176923751831055
1770952042270595800,5.482595947265625,0.1356196403503418,1.4979543685913086,-1.088793396949768
1770952042289567000,5.50156689453125,-0.04409170150756836,0.5342264175415039,-0.7188036441802979
1770952042308538400,5.520538330078125,0.4783027172088623,0.11057853698730469,-0.7698285579681396
1770952042327509800,5.539509765625,-0.43318653106689453,-0.034271240234375,-0.3181315064430237
1770952042346481200,5.558481201171875,-0.4940192699432373,-0.033817291259765625,-0.5029731392860413
1770952042365452300,5.577452392578125,0.24773144721984863,-0.05336284637451172,-1.54638671875
1770952042384423700,5.596423583984375,-0.17422890663146973,-0.21416378021240234,-0.64003586769104
1770952042403394800,5.615394775390625,0.4629397392272949,0.21002197265625,-0.8953595757484436
1770952042422366200,5.6343662109375,-1.065805435180664,0.6874494552612305,-0.23570847511291504
1770952042441337600,5.653337646484375,0.05195951461791992,0.5931501388549805,-1.930433750152588
1770952042460308700,5.672308837890625,0.015589714050292969,-0.6859369277954102,-1.2367799282073975
1770952042479280000,5.691280029296875,0.3527204990386963,0.3710784912109375,-0.018919825553894043
1770952042507737000,5.719737060546875,0.23515963554382324,0.5474739074707031,-0.8045250177383423
1770952042526708500,5.73870849609375,0.13794255256652832,-1.4761943817138672,-0.6751109957695007
1770952042545680000,5.757679931640625,0.4195733070373535,-0.8215789794921875,-0.9412481784820557
1770952042564651000,5.776651123046875,0.4860384464263916,-0.4118013381958008,-0.573792040348053
1770952042583622400,5.795622314453125,0.18115663528442383,0.12650585174560547,-0.2595459222793579
1770952042602593800,5.81459375,-0.032909393310546875,0.5318384170532227,-1.6327331066131592
1770952042621565000,5.83356494140625,0.1884467601776123,0.3027763366699219,-1.4135308265686035
1770952042640536300,5.852536376953125,0.036377668380737305,-0.5740127563476562,-0.8308659195899963
1770952042659507700,5.8715078125,0.5344772338867188,-0.7953357696533203,-0.8004739284515381
1770952042678478800,5.890478759765625,0.25347232818603516,-0.2385110855102539,-1.3170076608657837
1770952042697450200,5.9094501953125,-0.28490495681762695,-0.20136070251464844,-0.903588056564331
1770952042716421600,5.928421630859375,-0.8392543792724609,-0.05072307586669922,-0.5063917636871338
1770952042735393000,5.94739306640625,-0.019668102264404297,0.25259971618652344,-0.7771090269088745
1770952042754364200,5.9663642578125,0.06523466110229492,-0.2700653076171875,-0.6152814626693726
1770952042773335600,5.98533544921875,0.11751699447631836,0.10711288452148438,-1.1221120357513428
1770952042792307000,6.004306884765625,-0.413637638092041,-0.6908121109008789,-0.9529605507850647
1770952042811278300,6.0232783203125,0.47565126419067383,-0.08305072784423828,-0.49586164951324463
1770952042830249500,6.04224951171875,-0.4121816158294678,0.8090639114379883,-0.6149208545684814
1770952042849220900,6.061220947265625,-0.19127416610717773,0.8685951232910156,-0.8675607442855835
1770952042868192300,6.080192138671875,0.41597843170166016,-0.2400503158569336,-0.5241368412971497
1770952042887163600,6.09916357421875,0.571544885635376,-1.4690923690795898,-0.7795799970626831
1770952042906134800,6.118134765625,0.30449795722961426,-0.5418148040771484,-0.7877813577651978
1770952042925106200,6.137106201171875,0.08907222747802734,0.9584474563598633,-0.862680196762085
1770952042944077600,6.15607763671875,0.4821779727935791,-0.3489570617675781,-0.9289757609367371
1770952042963049000,6.175049072265625,0.6095638275146484,-0.6756782531738281,-0.8549402952194214
1770952042982020000,6.19402001953125,0.5699458122253418,0.0678396224975586,-1.2792083024978638
1770952043000991500,6.212991455078125,-0.15461182594299316,0.8682470321655273,0.05211532115936279
1770952043019963000,6.231962890625,0.0418705940246582,0.7353200912475586,-1.06614351272583
1770952043038934300,6.250934326171875,-0.359234094619751,-0.72247314453125,-1.513505458831787
1770952043057905400,6.269905517578125,0.4731404781341553,-0.5504388809204102,-0.5358115434646606
1770952043076876800,6.288876708984375,0.3640909194946289,0.23519134521484375,-0.6923878192901611
1770952043095848200,6.30784814453125,-0.2965269088745117,-1.0059728622436523,-0.7589917182922363
1770952043114819600,6.326819580078125,0.16475939750671387,-0.9373559951782227,-0.5737030506134033
1770952043133791000,6.345791015625,0.26177144050598145,0.5069398880004883,-1.3308910131454468
1770952043152762400,6.364762451171875,-0.28944921493530273,1.4081377983093262,-0.3202866315841675
1770952043171733800,6.383733642578125,-0.15002107620239258,0.6914405822753906,-0.922059178352356
1770952043190705000,6.402704833984375,-0.6339461803436279,-0.7501678466796875,-1.2496044635772705
1770952043209676300,6.42167626953125,-0.3144235610961914,0.0651702880859375,-0.6802804470062256
1770952043228647700,6.440647705078125,0.038654327392578125,1.1648311614990234,-0.7408736944198608
1770952043247619000,6.459619140625,-0.44193267822265625,0.4266672134399414,-0.8080993890762329
1770952043266590200,6.478590087890625,-0.14713525772094727,0.03313732147216797,-1.154760479927063
1770952043285561600,6.4975615234375,-0.47568488121032715,0.046769142150878906,-1.1507288217544556
1770952043304533000,6.516532958984375,-0.38330817222595215,0.45018863677978516,-0.6301722526550293
1770952043323504400,6.53550439453125,0.42861461639404297,-0.3123931884765625,-1.047141671180725
1770952043342475800,6.554475830078125,0.3101806640625,0.19542789459228516,-0.9435598850250244
1770952043361447200,6.573447265625,-0.5077774524688721,-0.3693704605102539,-0.8313772678375244
1770952043380418300,6.592418212890625,0.0809178352355957,0.7057008743286133,-0.7026190757751465
1770952043408875500,6.62087548828125,-0.5191447734832764,-0.25134944915771484,-1.2005659341812134
1770952043427846700,6.6398466796875,0.6618423461914062,0.4168100357055664,-0.7650709748268127
1770952043446818000,6.658818115234375,-0.07363200187683105,0.5224094390869141,-0.7027133703231812
1770952043465789400,6.67778955078125,-0.2778768539428711,0.011951446533203125,-0.8672268390655518
1770952043484760800,6.6967607421875,0.07561039924621582,0.16766738891601562,-1.4130737781524658
1770952043503732200,6.715732177734375,-0.0331571102142334,-0.08245563507080078,-1.0792829990386963
1770952043522703600,6.73470361328125,0.17765021324157715,0.2774524688720703,-0.383825421333313
1770952043541675000,6.753675048828125,0.9323215484619141,-0.49059200286865234,-1.7781891822814941
1770952043560646100,6.772646240234375,0.04647326469421387,0.4010047912597656,-0.8331533074378967
1770952043579617500,6.791617431640625,-0.1607351303100586,0.42615604400634766,-0.7743311524391174
1770952043598589000,6.8105888671875,-0.36333656311035156,-0.6512422561645508,-0.7651202082633972
1770952043617560300,6.829560302734375,-0.18789243698120117,-0.5613851547241211,-1.2781853675842285
1770952043636531700,6.84853173828125,-0.7009410858154297,0.3789825439453125,-0.5872990489006042
1770952043655503000,6.867503173828125,-0.1429126262664795,-0.5808515548706055,-0.8673715591430664
1770952043674474500,6.886474609375,0.5815389156341553,-1.3436212539672852,-1.4306204319000244
1770952043693446000,6.90544580078125,-0.03780388832092285,-0.4637126922607422,-1.0503075122833252
1770952043712417300,6.924417236328125,0.9056804180145264,0.06617450714111328,-1.1316266059875488
1770952043731388400,6.943388427734375,0.47258830070495605,-0.008996009826660156,-1.1348650455474854
1770952043750359800,6.96235986328125,-0.20763373374938965,-0.9706430435180664,-0.6788601875305176
1770952043769331500,6.98133154296875,0.8348000049591064,-0.3229246139526367,-1.6470369100570679
1770952043788302600,7.000302490234375,0.831824541091919,-0.27289867401123047,-2.042067527770996
1770952043807274000,7.01927392578125,0.16002130508422852,-0.35977840423583984,-0.34260571002960205
1770952043826245400,7.038245361328125,-0.31005859375,1.2604494094848633,-0.1043999195098877
1770952043845216800,7.057216796875,0.9818086624145508,-0.888157844543457,-2.1777873039245605
1770952043864188200,7.076188232421875,0.8312630653381348,-0.0883188247680664,-0.6126737594604492
1770952043883159600,7.09515966796875,0.10379409790039062,0.3208484649658203,-1.0829906463623047
1770952043902131000,7.114130859375,0.43616294860839844,0.2736806869506836,-1.4372069835662842
1770952043921102300,7.133102294921875,0.01473855972290039,0.7053308486938477,-1.006417989730835
1770952043940073700,7.15207373046875,-0.9253935813903809,1.1827716827392578,-1.479048490524292
1770952043959045000,7.171045166015625,0.43004417419433594,-0.2866945266723633,-1.1543134450912476
1770952043978016500,7.1900166015625,-0.07062864303588867,-0.04479503631591797,-0.33564478158950806
1770952043996988000,7.20898779296875,-0.8906524181365967,-0.2636680603027344,-1.1062880754470825
1770952044015959300,7.227959228515625,-0.1224212646484375,-0.24723529815673828,-1.3388800621032715
1770952044034930700,7.2469306640625,-0.2100820541381836,-0.23882007598876953,-1.300279140472412
1770952044053902000,7.265902099609375,-0.2108745574951172,0.38983726501464844,-1.5143271684646606
1770952044072873200,7.284873291015625,-0.2511298656463623,0.12676048278808594,-1.3015413284301758
1770952044091844900,7.303844970703125,0.6245040893554688,-0.5755605697631836,-1.495828628540039
1770952044110816300,7.322816162109375,-0.04145693778991699,0.08257102966308594,-1.1136937141418457
1770952044129787400,7.341787353515625,-0.5477466583251953,0.8599796295166016,-1.084263563156128
1770952044148759000,7.360759033203125,-0.13641953468322754,0.2032003402709961,-1.58125901222229
1770952044167730200,7.379730224609375,-0.1555643081665039,0.09789562225341797,-1.0199168920516968
1770952044186701600,7.39870166015625,0.6856796741485596,-0.0973806381225586,-1.6898868083953857
1770952044205673200,7.417673095703125,0.7205212116241455,-0.35183238983154297,-1.1715505123138428
1770952044224644400,7.436644287109375,-0.5211379528045654,-0.210845947265625,-0.8491389751434326
1770952044243615700,7.45561572265625,0.5743718147277832,0.37530040740966797,-2.367997407913208
1770952044262587400,7.47458740234375,0.562246561050415,-0.34563159942626953,-1.2465698719024658
1770952044281558500,7.49355859375,0.13969135284423828,0.7293758392333984,-1.0235016345977783
1770952044300530000,7.512530029296875,0.11059927940368652,0.8319568634033203,-1.6291530132293701
1770952044319501600,7.53150146484375,0.8172361850738525,-0.25078296661376953,-1.2006951570510864
1770952044338472700,7.55047265625,-0.06460762023925781,-0.09533405303955078,-1.242569088935852
1770952044357444400,7.5694443359375,-0.7611937522888184,-0.33226776123046875,-1.8403007984161377
1770952044376415700,7.588415771484375,0.7461535930633545,-0.4896383285522461,-1.621751308441162
1770952044395387000,7.607386962890625,-0.13641929626464844,-0.4982175827026367,-1.585770606994629
1770952044414358500,7.626358642578125,-0.12120771408081055,-0.20644092559814453,-1.7220406532287598
1770952044433329700,7.64532958984375,0.012174844741821289,-0.19419002532958984,-1.2649214267730713
1770952044452301300,7.66430126953125,-0.4677908420562744,-0.22609901428222656,-1.3644556999206543
1770952044471272700,7.683272705078125,-0.24615144729614258,0.06584930419921875,-1.418052077293396
1770952044490244000,7.702244140625,-0.18513083457946777,-0.12153339385986328,-1.4121699333190918
1770952044509215500,7.721215576171875,0.6206083297729492,-0.990208625793457,-2.008273124694824
1770952044528187000,7.740186767578125,-0.13119268417358398,-1.3278417587280273,-1.2750461101531982
1770952044547158300,7.759158203125,0.3036806583404541,-0.00185394287109375,-1.8248872756958008
1770952044566129700,7.778129638671875,0.15937042236328125,-0.35881996154785156,-1.4192150831222534
1770952044585101000,7.79710107421875,0.22904276847839355,-0.4976949691772461,-1.4467121362686157
1770952044604072400,7.816072509765625,-0.0024840831756591797,-0.29973697662353516,-1.9159033298492432
1770952044623043800,7.8350439453125,0.03731679916381836,-0.1941356658935547,-0.7134230136871338
1770952044642015200,7.85401513671875,0.8610141277313232,0.09664344787597656,-1.621671438217163
1770952044660986600,7.872986572265625,0.5181856155395508,-0.36541175842285156,-1.6151213645935059
1770952044679958000,7.8919580078125,1.0446171760559082,-0.052254676818847656,-1.2669658660888672
1770952044698929400,7.910929443359375,0.5440754890441895,0.23812198638916016,-1.1689183712005615
1770952044717900800,7.92990087890625,-0.5550200939178467,0.22922420501708984,-1.2385019063949585
1770952044736872200,7.9488720703125,0.11829328536987305,-0.06982707977294922,-1.8457341194152832
1770952044755843600,7.967843505859375,-0.00339508056640625,-0.4397468566894531,-1.2727948427200317
1770952044774815000,7.98681494140625,-0.40306663513183594,0.060769081115722656,-1.6971205472946167
1770952044793786400,8.005786376953125,0.2672097682952881,0.472381591796875,-1.4477356672286987
1770952044812758000,8.024758056640625,0.06646871566772461,0.4940958023071289,-1.6682530641555786
1770952044831729200,8.043729248046875,-0.555058479309082,0.5656270980834961,-1.2063525915145874
1770952044850700500,8.062700439453126,0.2469472885131836,0.46842384338378906,-1.2254173755645752
1770952044869672200,8.081672119140626,-0.695218563079834,-0.10533332824707031,-1.4345382452011108
1770952044888643300,8.100643310546875,-0.18998503684997559,0.10785770416259766,-1.0800652503967285
1770952044907615000,8.119614990234375,0.6336545944213867,0.9378166198730469,-1.7811863422393799
1770952044926586400,8.13858642578125,-0.40590476989746094,0.7401695251464844,-1.473040223121643
1770952044945557800,8.157557861328126,-0.3169281482696533,0.5084781646728516,-0.973336935043335
1770952044964529200,8.176529052734375,0.9267394542694092,0.1698904037475586,-1.7385228872299194
1770952044983500500,8.19550048828125,0.39892077445983887,-0.04129600524902344,-1.4897862672805786
1770952045002472000,8.214471923828125,0.16575407981872559,0.04829216003417969,-1.47129487991333
1770952045021443300,8.233443359375,0.26694560050964355,0.06376361846923828,-1.6778064966201782
1770952045040414700,8.252414794921876,0.8937230110168457,-0.22287368774414062,-1.6294630765914917
1770952045059386000,8.27138623046875,0.5170271396636963,0.3979787826538086,-1.3526535034179688
1770952045078357500,8.290357421875,-0.053797245025634766,0.7048139572143555,-1.337227463722229
1770952045097329000,8.309328857421875,-0.08098077774047852,0.8391046524047852,-1.3868277072906494
1770952045116300300,8.32830029296875,0.7999722957611084,0.662959098815918,-1.2723604440689087
1770952045135271700,8.347271728515626,0.858626127243042,-0.08741569519042969,-1.7358814477920532
1770952045154243300,8.366243408203125,0.11606907844543457,0.38287353515625,-1.4100772142410278
1770952045173214500,8.38521435546875,-0.061060190200805664,0.5693426132202148,-1.3729894161224365
1770952045192186000,8.40418603515625,0.2552025318145752,0.5936460494995117,-1.4208731651306152
1770952045211157500,8.423157470703124,0.5109951496124268,0.10672283172607422,-1.6441023349761963
1770952045230129000,8.44212890625,0.4404435157775879,-0.5844411849975586,-1.5397820472717285
1770952045249100300,8.461100341796875,0.5892345905303955,-0.15081024169921875,-1.4107062816619873
1770952045268071700,8.48007177734375,0.4547111988067627,-0.3488330841064453,-1.6293703317642212
1770952045287043000,8.49904296875,0.4999847412109375,0.005925178527832031,-0.7371769547462463
1770952045306014500,8.518014404296874,0.31822800636291504,0.5733222961425781,-1.6081445217132568
1770952045324985900,8.53698583984375,0.8031866550445557,-0.12185859680175781,-1.544301986694336
1770952045343957200,8.555957275390625,0.07943177223205566,-0.16943645477294922,-0.8341426253318787
1770952045362928600,8.5749287109375,0.36377620697021484,0.3409290313720703,-1.294083833694458
1770952045381900000,8.593900146484375,1.1582117080688477,-0.09469223022460938,-1.174041986465454
1770952045400871400,8.612871337890626,1.0575082302093506,0.0391845703125,-1.128519058227539
1770952045419842800,8.6318427734375,0.48511695861816406,0.2825469970703125,-1.0203919410705566
1770952045438814200,8.650814208984375,1.086427927017212,0.637150764465332,-0.9595932960510254
1770952045457785600,8.66978564453125,1.1091587543487549,0.6252269744873047,-0.8472084999084473
1770952045476757000,8.688757080078124,1.1502468585968018,0.5846242904663086,-0.5948523283004761
1770952045495728600,8.707728759765626,0.9930117130279541,0.1753520965576172,-0.8702027797698975
1770952045514699800,8.72669970703125,0.5431334972381592,-0.5621566772460938,-0.9904223680496216
1770952045533671400,8.74567138671875,1.0169200897216797,0.22956562042236328,-0.9360448122024536
1770952045552642800,8.764642822265625,-0.01885843276977539,0.3772430419921875,-1.0778396129608154
1770952045571614200,8.7836142578125,0.06648111343383789,0.07534027099609375,-1.1000832319259644
1770952045590585600,8.802585693359376,0.2947359085083008,0.5344114303588867,-0.8597050905227661
1770952045609557000,8.821556884765625,1.229853630065918,0.4074888229370117,-0.877532422542572
1770952045628528400,8.8405283203125,0.25400543212890625,-0.3359527587890625,-0.7902840375900269
1770952045647499800,8.859499755859375,0.733558177947998,-0.5524282455444336,-1.021146535873413
1770952045666471200,8.87847119140625,1.18532133102417,-0.0666046142578125,-0.9175975322723389
1770952045685442600,8.897442626953126,0.734644889831543,0.03548908233642578,-0.8055030703544617
1770952045704414000,8.9164140625,0.9399895668029785,0.40306663513183594,-0.8668137788772583
1770952045723385300,8.93538525390625,1.6052603721618652,0.2064809799194336,-0.85395747423172
1770952045742356700,8.954356689453125,1.1513147354125977,-0.20662689208984375,-0.7521256804466248
1770952045761328000,8.973328125,0.17789173126220703,-0.1801767349243164,-0.2741471529006958
1770952045780299500,8.992299560546876,0.8136506080627441,0.11128902435302734,-0.6127792596817017
1770952045799271000,9.01127099609375,0.9498066902160645,0.6408557891845703,-0.7481709718704224
1770952045818242300,9.0302421875,0.00903463363647461,0.5773801803588867,-0.4206477999687195
1770952045856185000,9.06818505859375,0.6060004234313965,0.22306442260742188,-0.2641153335571289
1770952045875156500,9.087156494140626,0.3869819641113281,0.2512331008911133,-0.3840821385383606
1770952045894127900,9.1061279296875,0.6160659790039062,-0.025495529174804688,-1.2471644878387451
1770952045913099300,9.125099365234375,0.33673858642578125,-0.15009593963623047,-0.3252009153366089
1770952045932070700,9.144070556640624,0.36309337615966797,0.4956541061401367,-0.8067600131034851
1770952045951042300,9.163042236328126,1.2110071182250977,0.07251834869384766,-0.9022198915481567
1770952045970013400,9.182013427734375,0.721519947052002,0.2791929244995117,-0.36952823400497437
1770952045988984800,9.20098486328125,-0.1933765411376953,0.42983245849609375,-0.5495439171791077
1770952046017442000,9.229442138671875,-0.041234493255615234,0.19697856903076172,-0.2004389762878418
1770952046036413400,9.248413330078124,-0.08369874954223633,-0.04806327819824219,-0.5861278772354126
1770952046055384800,9.267384765625,0.7968611717224121,-0.2847557067871094,-0.5802783370018005
1770952046074356200,9.286356201171875,0.7283635139465332,-0.2568788528442383,-0.16772276163101196
1770952046093327600,9.30532763671875,0.7564153671264648,0.05142021179199219,-0.47862476110458374
1770952046112299000,9.324299072265624,0.15218830108642578,-0.2801017761230469,-0.7458672523498535
1770952046131270400,9.3432705078125,0.8620738983154297,-0.8470211029052734,-0.22221499681472778
1770952046150241800,9.36224169921875,0.7846212387084961,-0.2515087127685547,-0.30338650941848755
1770952046169213200,9.381213134765625,0.49222755432128906,0.13183116912841797,-0.1653372049331665
1770952046188184600,9.4001845703125,0.7428030967712402,0.08473587036132812,0.05196499824523926
1770952046207156000,9.419156005859374,0.8826408386230469,0.014609336853027344,-0.1305752992630005
1770952046226127400,9.43812744140625,-0.054290771484375,0.13842201232910156,-0.23469161987304688
1770952046245098800,9.4570986328125,0.20627212524414062,-0.3124103546142578,-0.32262879610061646
1770952046264070100,9.476070068359375,0.6865735054016113,0.3120155334472656,0.014629721641540527
1770952046283041500,9.49504150390625,0.893704891204834,0.8056306838989258,0.2972356677055359
1770952046302013000,9.514012939453124,0.2380661964416504,0.6622190475463867,0.2759796977043152
1770952046320984300,9.532984375,0.07389688491821289,0.15948486328125,-0.020294487476348877
1770952046339955700,9.551955810546875,0.650334358215332,0.21088790893554688,0.5473222732543945
1770952046358926800,9.5709267578125,0.41207218170166016,0.8750076293945312,0.7645837068557739
1770952046377898500,9.5898984375,0.22485065460205078,0.7192068099975586,0.49623024463653564
1770952046396870000,9.608869873046874,-0.18642234802246094,-0.02392864227294922,0.4717083275318146
1770952046415841000,9.627841064453126,0.17312192916870117,0.017785072326660156,0.20770910382270813
1770952046434812400,9.6468125,0.8112788200378418,0.15316390991210938,0.33996614813804626
1770952046453784000,9.6657841796875,0.16250276565551758,0.6340446472167969,0.8723112344741821
1770952046472755200,9.684755126953124,-0.48432111740112305,0.37592601776123047,0.5854929089546204
1770952046491726600,9.7037265625,0.48260927200317383,0.3436088562011719,0.0875517725944519
1770952046510698000,9.722697998046876,0.6177525520324707,0.4994945526123047,0.5462332367897034
1770952046529669400,9.74166943359375,0.04418373107910156,0.4232511520385742,0.4768947660923004
1770952046548640800,9.760640869140625,0.37337446212768555,0.7237162590026855,0.43730467557907104
1770952046567612200,9.779612060546874,1.051074504852295,0.520228385925293,0.17872962355613708
1770952046586583600,9.79858349609375,1.134568214416504,0.40952205657958984,0.042587339878082275
1770952046605555000,9.817554931640625,-0.2700533866882324,-0.2778768539428711,0.3696838617324829
1770952046624526300,9.8365263671875,1.0836992263793945,0.24693965911865234,0.24746912717819214
1770952046643497500,9.85549755859375,1.9694299697875977,0.047931671142578125,-0.08908069133758545
1770952046662468900,9.87446875,1.4296317100524902,-0.05635547637939453,0.1120229959487915
1770952046681440300,9.893440185546876,1.1292757987976074,-0.15201377868652344,0.06700548529624939
1770952046700411600,9.91241162109375,2.2564735412597656,-0.36264896392822266,-0.33384430408477783
1770952046719383000,9.931383056640625,2.2097506523132324,-0.5230550765991211,-0.26491910219192505
1770952046738354400,9.9503544921875,1.3449578285217285,-0.2294940948486328,0.034087568521499634
1770952046757325800,9.969325927734374,1.3986272811889648,0.05307769775390625,-0.4328632354736328
1770952046776297200,9.988297119140626,1.5965657234191895,-0.16189956665039062,-0.5635648965835571
1770952046795268600,10.0072685546875,1.4624013900756836,-0.08485698699951172,-0.1309378445148468
1770952046814240000,10.026239990234375,0.5524940490722656,-0.0679311752319336,-0.014918714761734009
1770952046833211100,10.045211181640624,0.43529605865478516,0.33008289337158203,0.07287375628948212
1770952046852182500,10.0641826171875,-0.2131366729736328,0.28434276580810547,-0.3702058792114258
1770952046871154000,10.08315380859375,0.10333776473999023,-0.03641510009765625,0.16918925940990448
1770952046890125300,10.102125244140625,-0.03299379348754883,0.40212535858154297,0.0647413581609726
1770952046909096700,10.1210966796875,0.05538177490234375,0.02482318878173828,-0.4877563714981079
1770952046928068000,10.140068115234374,-0.2208871841430664,0.12595844268798828,-0.07134252786636353
1770952046947039500,10.15903955078125,0.2158517837524414,0.28744029998779297,-0.3252808451652527
1770952046966010600,10.1780107421875,1.2335782051086426,0.515406608581543,-0.32766157388687134
1770952046984982000,10.19698193359375,1.1369004249572754,0.6717815399169922,0.31216517090797424
1770952047003953400,10.215953369140625,0.24018621444702148,0.8162851333618164,-0.2424488663673401
1770952047022924800,10.2349248046875,0.7602348327636719,0.570063591003418,-0.3628048598766327
1770952047041896000,10.25389599609375,1.0104660987854004,0.8264741897583008,-0.18667073547840118
1770952047060867300,10.272867431640625,1.1465692520141602,1.0759096145629883,-0.35166028141975403
1770952047079838700,10.291838623046875,1.1127848625183105,0.3986053466796875,-0.7426549792289734
1770952047098810000,10.31081005859375,0.8544216156005859,0.32541465759277344,-0.6550564169883728
1770952047117781500,10.329781494140626,0.8045668601989746,0.810056209564209,-0.35453319549560547
1770952047136752600,10.348752685546875,1.2863116264343262,0.2697124481201172,-0.23114623129367828
1770952047155724000,10.36772412109375,1.2502918243408203,-0.028542518615722656,-0.7621714472770691
1770952047174695400,10.3866953125,0.8398337364196777,-0.24562644958496094,-0.8720493912696838
1770952047193666800,10.405666748046874,0.5905652046203613,0.7984528541564941,-0.47633469104766846
1770952047212638000,10.424637939453126,1.575829029083252,0.38689327239990234,-0.46739405393600464
1770952047231609300,10.443609375,1.9243083000183105,0.3482627868652344,-0.766546368598938
1770952047250580700,10.462580810546875,0.7141504287719727,0.05597114562988281,-0.7927296161651611
1770952047269552000,10.48155224609375,2.472290515899658,0.1080484390258789,-0.662324070930481
1770952047288523300,10.500523193359374,2.225801944732666,0.24118900299072266,-0.6726334691047668
1770952047307494700,10.51949462890625,1.3224244117736816,0.19424057006835938,-0.7709025144577026
1770952047326466000,10.538466064453125,1.4549388885498047,-0.11146259307861328,-0.8400909304618835
1770952047345437200,10.557437255859375,1.5394501686096191,-0.2119617462158203,-0.910515308380127
1770952047364408600,10.57640869140625,1.2000432014465332,-0.4551839828491211,-0.8397783041000366
1770952047383380000,10.5953798828125,1.3115668296813965,-0.1709127426147461,-0.4994664490222931
1770952047402351400,10.614351318359375,0.5413646697998047,-0.3513212203979492,-0.6012298464775085
1770952047421322500,10.633322509765625,0.39191770553588867,-0.23580360412597656,-0.5909873247146606
1770952047440294000,10.6522939453125,-0.20563220977783203,0.041957855224609375,-0.5962752103805542
1770952047459265300,10.671265380859374,-0.3668961524963379,0.2422637939453125,-0.5673260688781738
1770952047478236400,10.690236328125,0.6949377059936523,0.2880983352661133,-0.4508001208305359
1770952047497207800,10.709207763671875,0.4387516975402832,0.30918121337890625,-0.24118509888648987
1770952047516179000,10.728178955078125,-0.536400318145752,0.38201427459716797,-0.5816388726234436
1770952047535150300,10.747150390625,-0.22721338272094727,0.25714683532714844,-0.723819375038147
1770952047554121700,10.766121826171876,0.7388033866882324,0.21093463897705078,-0.3987807035446167
1770952047573093000,10.785093017578125,0.557304859161377,0.5590848922729492,-0.5921422243118286
1770952047592064300,10.804064208984375,0.09618043899536133,0.7541465759277344,-0.30929091572761536
1770952047611035600,10.82303564453125,0.16922760009765625,0.645024299621582,-0.4642951488494873
1770952047630006800,10.8420068359375,0.2717595100402832,0.41477298736572266,-0.9395737648010254
1770952047648978200,10.860978271484376,0.6258468627929688,0.6191234588623047,-0.7091631293296814
1770952047667949600,10.879949462890625,0.8044662475585938,0.21905994415283203,-0.7228017449378967
1770952047686920700,10.898920654296875,0.7126564979553223,0.07884502410888672,-0.5592037439346313
1770952047705892000,10.91789208984375,0.8576216697692871,0.10979938507080078,-0.7090138792991638
1770952047724863200,10.93686328125,1.616868019104004,0.06208610534667969,-0.7931829690933228
1770952047743834600,10.955834716796875,0.8367643356323242,0.5020904541015625,-0.6572476029396057
1770952047762805800,10.9748056640625,1.1880173683166504,0.05036449432373047,-1.0719233751296997
1770952047781777200,10.993777099609375,1.4622883796691895,0.3590564727783203,-0.7846639752388
1770952047800748500,11.01274853515625,0.9005179405212402,0.6715278625488281,-0.8651183843612671
1770952047819719700,11.0317197265625,1.1947870254516602,0.6094808578491211,-0.8018068075180054
1770952047838690800,11.05069091796875,1.1921067237854004,0.3268928527832031,-0.8023369908332825
1770952047857662200,11.069662109375,0.7167363166809082,0.5080595016479492,-0.8167356252670288
1770952047876633600,11.088633544921874,0.6119928359985352,0.3163309097290039,-0.942499041557312
1770952047895604700,11.107604736328126,0.7592573165893555,0.18900299072265625,-0.6677420139312744
1770952047924061700,11.136061767578125,0.5565710067749023,0.1884918212890625,-0.7617177367210388
1770952047943032800,11.15503271484375,0.4282245635986328,0.3118619918823242,-0.6801778078079224
1770952047962004200,11.174004150390624,0.6585016250610352,0.6383461952209473,-0.6813218593597412
1770952047980975400,11.192975341796876,0.13443422317504883,0.8681144714355469,-0.49795836210250854
1770952047999946800,11.21194677734375,-0.08759593963623047,0.5085849761962891,-0.6064336895942688
1770952048018918000,11.23091796875,0.4877314567565918,0.31720447540283203,-0.6431722640991211
1770952048037889300,11.24988916015625,0.43329668045043945,0.44735050201416016,-0.705825924873352
1770952048056860400,11.2688603515625,-0.5836682319641113,0.016615867614746094,-0.573398232460022
1770952048075831600,11.28783154296875,0.43085241317749023,-0.2858438491821289,-0.7305144667625427
1770952048094803000,11.306802978515625,0.5670070648193359,0.17830753326416016,-0.39766740798950195
1770952048113774000,11.325774169921875,0.09832286834716797,0.810142993927002,-0.774623692035675
1770952048132745500,11.344745361328124,-0.07219696044921875,0.47249507904052734,-0.42888322472572327
1770952048151716600,11.363716552734376,0.210357666015625,0.42926883697509766,-0.7379325032234192
1770952048170688000,11.38268798828125,0.23821067810058594,0.15678977966308594,-0.8592289090156555
1770952048189659100,11.4016591796875,0.2629585266113281,0.2468891143798828,-0.4068097472190857
1770952048208630500,11.420630615234375,0.5521860122680664,0.2671852111816406,-0.5623103380203247
1770952048227601700,11.4396015625,0.4468226432800293,0.016211509704589844,-0.8169108033180237
1770952048246572800,11.45857275390625,0.28105878829956055,-0.18684005737304688,-0.6023449897766113
1770952048265544000,11.4775439453125,0.4516110420227051,-0.1512308120727539,-0.6417807936668396
1770952048284515300,11.496515380859375,0.2697267532348633,-0.06637001037597656,-0.6347402334213257
1770952048303486500,11.515486572265624,0.36304187774658203,0.08634376525878906,-0.9337824583053589
1770952048322457900,11.534457763671876,0.8833060264587402,0.34974098205566406,-0.8661684989929199
1770952048341429000,11.553428955078125,0.8860440254211426,0.09767913818359375,-0.6679061055183411
1770952048360400100,11.572400146484375,0.3849930763244629,-0.05751228332519531,-1.012462854385376
1770952048379371500,11.59137158203125,0.7261495590209961,0.1854848861694336,-0.9635618925094604
1770952048398342700,11.6103427734375,0.6184802055358887,0.31237220764160156,-0.8717469573020935
1770952048417313800,11.629313720703125,0.8539671897888184,0.45784854888916016,-1.082531213760376
1770952048436285200,11.64828515625,0.5917034149169922,0.09480571746826172,-0.7143922448158264
1770952048455256300,11.66725634765625,0.32767724990844727,0.3650388717651367,-0.7690486907958984
1770952048474227500,11.6862275390625,0.6931371688842773,0.16584300994873047,-1.333329677581787
1770952048493198600,11.705198486328126,0.6626968383789062,0.043056488037109375,-0.9462408423423767
1770952048512170000,11.724169921875,0.5054230690002441,-0.07650089263916016,-1.170790672302246
1770952048531141000,11.74314111328125,1.0441832542419434,0.3806037902832031,-0.9811751246452332
1770952048550112300,11.7621123046875,0.9214572906494141,0.5165615081787109,-0.9730408191680908
1770952048569083400,11.78108349609375,1.070112705230713,0.25323486328125,-1.0660431385040283
1770952048588054800,11.8000546875,0.6991491317749023,0.3946857452392578,-0.9712607860565186
1770952048607026000,11.81902587890625,0.3695182800292969,0.34648704528808594,-0.9402040839195251
1770952048625997000,11.8379970703125,0.511690616607666,-0.032470703125,-1.268343210220337
1770952048644968200,11.85696826171875,1.1493110656738281,0.09900379180908203,-0.546586275100708
1770952048663939300,11.875939208984375,0.472409725189209,0.5171370506286621,-1.0719256401062012
1770952048682910700,11.89491064453125,0.19951581954956055,0.5285005569458008,-1.063946008682251
1770952048701881900,11.9138818359375,0.10416364669799805,0.833162784576416,-0.8184089064598083
1770952048720853000,11.93285302734375,-0.005600452423095703,0.4930710792541504,-0.9039697647094727
1770952048739824000,11.95182421875,-0.17888593673706055,0.4245786666870117,-0.5368850231170654
1770952048758795300,11.970795166015625,0.07884359359741211,0.1632518768310547,-1.1095361709594727
1770952048777766400,11.989766357421875,0.3809175491333008,0.2284088134765625,-0.9926682710647583
1770952048796737800,12.00873779296875,0.23578166961669922,-0.1833629608154297,-0.9116623401641846
1770952048815709000,12.027708984375,0.5511469841003418,-0.5114173889160156,-1.1551542282104492
1770952048834680000,12.04668017578125,0.2743678092956543,-0.19307994842529297,-1.1045295000076294
1770952048853651200,12.065651123046875,0.7343540191650391,0.05916023254394531,-1.183927297592163
1770952048872622300,12.084622314453124,0.3429899215698242,0.5137004852294922,-0.9119685888290405
1770952048891593500,12.103593505859376,0.7277908325195312,0.5325508117675781,-1.0734508037567139
1770952048910564600,12.122564697265625,0.7260727882385254,-0.12206459045410156,-0.9598713517189026
1770952048929535700,12.14153564453125,1.1718883514404297,-0.07762813568115234,-1.2494571208953857
1770952048948507000,12.1605068359375,0.4424452781677246,-0.18221092224121094,-1.187916874885559
1770952048967478000,12.17947802734375,0.9290671348571777,-0.22862911224365234,-1.0871069431304932
1770952048986449200,12.19844921875,1.5583529472351074,0.17056703567504883,-1.559526801109314
1770952049005420300,12.217420166015625,0.6713557243347168,-0.08022212982177734,-1.2509737014770508
1770952049024391700,12.2363916015625,1.1560325622558594,-0.3780517578125,-1.3514386415481567
1770952049043362800,12.25536279296875,1.1221098899841309,0.04406261444091797,-1.4177182912826538
1770952049062334000,12.274333984375,1.4016985893249512,0.3908076286315918,-1.2927186489105225
1770952049081305000,12.29330517578125,1.2943968772888184,0.9257068634033203,-1.349250078201294
1770952049100276200,12.312276123046875,0.12770843505859375,0.09050369262695312,-1.0229439735412598
1770952049119247400,12.331247314453124,1.87646484375,0.04074859619140625,-1.5405659675598145
1770952049138218500,12.350218505859376,1.0778961181640625,-0.21810531616210938,-1.4622113704681396
1770952049157189600,12.369189697265625,-0.7765059471130371,0.07798576354980469,-1.28684663772583
1770952049176160800,12.388160888671875,0.15859699249267578,-0.23196792602539062,-1.6711264848709106
1770952049195131600,12.407131591796874,0.9268617630004883,0.6872110366821289,-1.2736899852752686
1770952049214102800,12.426102783203126,0.1717548370361328,0.2961916923522949,-1.1344592571258545
1770952049233074200,12.44507421875,-1.1643376350402832,-0.4124164581298828,-1.5091140270233154
1770952049252045300,12.46404541015625,0.8248395919799805,-0.16858291625976562,-1.5725243091583252
1770952049271016400,12.483016357421874,0.2051715850830078,0.011387825012207031,-1.209594488143921
1770952049289987300,12.5019873046875,-0.6695489883422852,-0.1078176498413086,-1.586214303970337
1770952049308958500,12.52095849609375,0.6803431510925293,0.21145057678222656,-1.4793301820755005
1770952049327929600,12.5399296875,1.265028476715088,0.0007886886596679688,-1.3545098304748535
1770952049346900700,12.558900634765624,-0.3775367736816406,-0.07648658752441406,-1.6649188995361328
1770952049365871900,12.577871826171876,0.45432090759277344,0.011095046997070312,-1.4711170196533203
1770952049384843000,12.596843017578125,0.5807509422302246,0.21533679962158203,-1.4972221851348877
1770952049403814100,12.615814208984375,0.10816621780395508,0.43085193634033203,-1.54129958152771
1770952049422785300,12.634785400390625,0.5993928909301758,0.20223426818847656,-1.707869529724121
1770952049441756400,12.65375634765625,0.19567203521728516,0.06945991516113281,-1.6467196941375732
1770952049460727300,12.672727294921875,0.39522552490234375,-0.21987438201904297,-1.8243138790130615
1770952049479698400,12.691698486328125,0.8750934600830078,-0.22484302520751953,-1.799720287322998
1770952049498669600,12.710669677734375,0.4775886535644531,0.1243133544921875,-2.16524600982666
1770952049517640700,12.729640625,0.35697460174560547,0.10251140594482422,-1.974743366241455
1770952049536611800,12.74861181640625,0.813227653503418,0.607846736907959,-1.6935584545135498
1770952049555583000,12.7675830078125,0.3215141296386719,0.6558151245117188,-2.069953441619873
1770952049574554000,12.78655419921875,0.21683168411254883,0.1598949432373047,-1.8555524349212646
1770952049593525000,12.80552490234375,0.8192582130432129,0.15543365478515625,-1.6199084520339966
1770952049612496100,12.82449609375,0.6942481994628906,-0.07126140594482422,-1.9308685064315796
1770952049631467300,12.84346728515625,0.7108335494995117,-0.24290084838867188,-2.1697936058044434
1770952049650438400,12.8624384765625,0.8149042129516602,-0.46979808807373047,-1.6783074140548706
1770952049669409500,12.881409423828124,1.3071675300598145,-0.06674766540527344,-1.9393503665924072
1770952049688380400,12.90038037109375,0.8311672210693359,0.13763713836669922,-1.5097647905349731
1770952049707351600,12.9193515625,0.09130668640136719,0.08434295654296875,-1.9775097370147705
1770952049726322700,12.93832275390625,0.4624910354614258,0.29122400283813477,-1.6565091609954834
1770952049745293800,12.9572939453125,0.18366718292236328,0.5901317596435547,-0.8798823952674866
1770952049764264700,12.9762646484375,-0.607358455657959,0.7850427627563477,-1.4692292213439941
1770952049783235800,12.99523583984375,-0.03224325180053711,0.055281639099121094,-1.3958483934402466
1770952049802207000,13.01420703125,0.019154071807861328,-0.4486865997314453,-1.285193681716919
1770952049821178000,13.03317822265625,-0.03661918640136719,0.20407390594482422,-0.9610377550125122
1770952049840149200,13.052149169921876,-0.1190185546875,0.23601102828979492,-0.8798183798789978
1770952049859120000,13.0711201171875,-0.02368783950805664,-0.6202220916748047,-1.4765150547027588
1770952049878091300,13.09009130859375,0.7869186401367188,-0.5491323471069336,-1.5262219905853271
1770952049897062400,13.1090625,0.026261329650878906,0.21993637084960938,-1.3026537895202637
1770952049916033300,13.128033203125,-0.38750219345092773,0.26557350158691406,-0.8297879099845886
1770952049935004400,13.14700439453125,-0.009337425231933594,0.40418100357055664,-1.051455020904541
1770952049953975600,13.1659755859375,0.37877559661865234,0.2808237075805664,-1.1958993673324585
1770952049972946400,13.184946533203124,-0.13835906982421875,0.15137577056884766,-1.0805829763412476
1770952049991917600,13.20391748046875,-0.4099888801574707,-0.052781105041503906,-0.9471379518508911
1770952050010888700,13.222888671875,0.08924198150634766,-0.2329254150390625,-1.0621360540390015
1770952050029859600,13.241859619140625,0.7588539123535156,-0.3987846374511719,-0.8772346377372742
1770952050048830700,13.260830810546874,0.8280019760131836,-0.2180919647216797,-1.332363247871399
1770952050067801900,13.2798017578125,0.6166844367980957,-0.39699840545654297,-1.134124994277954
1770952050086772700,13.298772705078125,0.3076639175415039,-0.16863155364990234,-0.9540650248527527
1770952050105744000,13.317743896484375,0.5624675750732422,-0.1687946319580078,-1.0107576847076416
1770952050124715000,13.336715087890624,0.3573031425476074,0.1329345703125,-0.9231655597686768
1770952050143686000,13.355685791015626,0.35747575759887695,-0.040813446044921875,-1.494226336479187
1770952050162657000,13.374656982421875,0.07854557037353516,-0.1608743667602539,-1.174801230430603
1770952050181628000,13.3936279296875,0.3588080406188965,-0.34870147705078125,-1.3836511373519897
1770952050200599000,13.41259912109375,1.1050658226013184,-0.22101306915283203,-1.2354789972305298
1770952050219570200,13.431570068359376,0.1789107322692871,-0.03072357177734375,-0.9035427570343018
1770952050238541000,13.450541015625,-0.09054327011108398,-0.1130075454711914,-1.2342581748962402
1770952050257512200,13.46951220703125,1.1189937591552734,0.08339405059814453,-1.3543297052383423
1770952050276483000,13.488483154296874,0.460237979888916,0.5039825439453125,-0.8973453640937805
1770952050295454200,13.5074541015625,0.29822731018066406,0.25568628311157227,-0.9103884100914001
1770952050314425000,13.526425048828125,0.5504937171936035,0.0925760269165039,-0.964479923248291
1770952050333396200,13.545396240234375,0.7900629043579102,0.02971935272216797,-0.9449625015258789
1770952050352367400,13.564367431640624,0.2877521514892578,0.07552814483642578,-0.8737760186195374
1770952050371338200,13.583338134765626,-0.1343374252319336,-0.08535194396972656,-0.9270215034484863
1770952050390309400,13.602309326171875,-0.05441093444824219,0.015871047973632812,-0.8036127686500549
1770952050409280300,13.6212802734375,0.36431312561035156,0.4963417053222656,-0.6219766139984131
1770952050428251400,13.64025146484375,-0.5271649360656738,0.044907569885253906,-0.7042179107666016
1770952050447222300,13.65922216796875,-0.34926652908325195,-0.06847858428955078,-0.6366597414016724
1770952050466193400,13.678193359375,0.3539552688598633,-0.08054161071777344,-0.5803496837615967
1770952050485164300,13.697164306640625,0.16445112228393555,-0.10333728790283203,-0.8512364029884338
1770952050504135400,13.716135498046874,0.22527647018432617,-0.1847972869873047,-0.7073575258255005
1770952050523106300,13.735106201171876,0.5604972839355469,-0.21832942962646484,-0.6533809304237366
1770952050542077200,13.7540771484375,0.18577241897583008,-0.45132923126220703,-0.6344367265701294
1770952050561048300,13.77304833984375,0.19768142700195312,-0.29947853088378906,-0.8883801102638245
1770952050580019500,13.79201953125,0.23860979080200195,-0.23336410522460938,-0.49800294637680054
1770952050598990300,13.810990234375,0.7227315902709961,-0.16337299346923828,-0.47114574909210205
1770952050617961500,13.82996142578125,0.41098690032958984,-0.14296817779541016,-0.8993747234344482
1770952050636932400,13.848932373046875,0.2890591621398926,-0.4558267593383789,-0.7957589626312256
1770952050655903200,13.8679033203125,0.2599978446960449,0.05934619903564453,-0.3525713086128235
1770952050674874400,13.886874267578126,0.1787400245666504,0.2617759704589844,-0.6346096992492676
1770952050693845200,13.90584521484375,-0.15507936477661133,0.12401676177978516,-0.7739718556404114
1770952050712816000,13.924816162109375,-0.1687297821044922,0.14400768280029297,-0.3800722360610962
1770952050731787300,13.943787353515624,0.7131052017211914,-0.17375469207763672,-0.673467755317688
1770952050750758100,13.962758056640626,0.06226015090942383,0.07729530334472656,-0.3620251417160034
1770952050769729300,13.981729248046875,0.5919356346130371,0.009664535522460938,-0.6361757516860962
1770952050788700200,14.0007001953125,-0.0539698600769043,-0.3048715591430664,-0.8655033111572266
1770952050807671000,14.019671142578124,1.0214715003967285,-0.4279813766479492,-0.532599925994873
1770952050826642200,14.03864208984375,0.7270522117614746,0.012410163879394531,-0.6276769638061523
1770952050845613000,14.057613037109375,0.06362628936767578,-0.6453418731689453,-0.40310800075531006
1770952050864584000,14.076583984375,0.43904733657836914,-0.05866718292236328,-0.4206762909889221
1770952050883555000,14.09555517578125,-0.02407693862915039,-0.0648345947265625,-0.5854181051254272
1770952050902526000,14.11452587890625,0.19193363189697266,0.01428985595703125,-0.7703306674957275
1770952050921497000,14.1334970703125,0.037050724029541016,-0.08924388885498047,-0.38195323944091797
1770952050940468000,14.152468017578125,0.07610273361206055,0.11904525756835938,-0.312996506690979
1770952050959438800,14.17143896484375,-0.016021728515625,0.5351066589355469,-0.4418785572052002
1770952050978410000,14.190409912109375,-0.24370193481445312,0.31441688537597656,-0.4208688735961914
1770952050997380900,14.209380859375,0.11124324798583984,0.4639911651611328,-0.2457195520401001
1770952051016351700,14.228351806640624,-0.5687689781188965,0.3928413391113281,-0.18892955780029297
1770952051035322600,14.247322509765626,-0.6175804138183594,0.12636518478393555,-0.45414459705352783
1770952051054293800,14.266293701171875,0.7183218002319336,-0.20389461517333984,-0.4148920774459839
1770952051073264600,14.2852646484375,0.14430999755859375,-0.31633567810058594,-0.40683603286743164
1770952051092235500,14.304235595703124,-0.4426078796386719,-0.12139320373535156,-0.12629079818725586
1770952051111206700,14.32320654296875,-0.02245187759399414,0.07658767700195312,0.13677406311035156
1770952051130177500,14.342177490234375,-0.6657214164733887,-0.3536062240600586,-0.256754994392395
1770952051149148400,14.3611484375,-0.35777854919433594,-0.46169376373291016,-0.44137072563171387
1770952051168119300,14.380119384765624,-0.4805755615234375,-0.04821205139160156,-0.17668545246124268
1770952051187090200,14.399090087890626,-1.326866626739502,0.04336833953857422,-0.11734211444854736
1770952051206061300,14.418061279296875,0.6467876434326172,0.07000732421875,0.09289395809173584
1770952051225032200,14.4370322265625,-0.09798240661621094,-0.2324676513671875,-0.3845367431640625
1770952051244003000,14.456003173828124,-1.4914312362670898,-0.8360433578491211,-0.5670913457870483
1770952051262974000,14.474973876953126,0.3129749298095703,-1.0410337448120117,-0.8249313831329346
1770952051281945000,14.493945068359375,-0.3200349807739258,-0.796173095703125,-0.8282824754714966
1770952051300916000,14.512916015625,-0.17989444732666016,0.0231475830078125,-0.2673346996307373
1770952051319886800,14.531886962890624,-0.42208433151245117,-0.7732257843017578,-0.26570045948028564
1770952051338857700,14.550857666015625,-0.8174314498901367,-0.3933897018432617,-0.05590355396270752
1770952051357828600,14.56982861328125,-1.5903830528259277,-0.33719921112060547,-0.1806180477142334
1770952051376799500,14.588799560546875,-0.9943971633911133,-0.12337017059326172,-0.4513751268386841
1770952051395770600,14.6077705078125,-0.7418069839477539,-0.03445911407470703,-0.49777257442474365
1770952051414741500,14.626741455078125,-0.8746204376220703,-0.005173683166503906,-0.6887788772583008
1770952051433712400,14.64571240234375,-0.7531781196594238,0.4047203063964844,-0.4128434658050537
1770952051452683300,14.664683349609374,-1.225792407989502,0.6427249908447266,-0.16067194938659668
1770952051471654100,14.683654052734376,-1.2532763481140137,0.3576984405517578,-0.49796271324157715
1770952051490625000,14.702625,-1.0143485069274902,-0.08782291412353516,-0.38942670822143555
1770952051509596200,14.72159619140625,-2.0419068336486816,-0.1525421142578125,-0.2905750274658203
1770952051528566800,14.74056689453125,-1.6603922843933105,-0.11465263366699219,-0.05370163917541504
1770952051547538000,14.759537841796876,-0.6102890968322754,-0.3628406524658203,-0.3947732448577881
1770952051566508800,14.7785087890625,-1.1331710815429688,-0.46768856048583984,-0.6272618770599365
1770952051585479700,14.797479736328125,-1.2440342903137207,-0.5772781372070312,-0.3552258014678955
1770952051604450600,14.816450439453124,-0.831639289855957,-0.31271934509277344,-0.632358193397522
1770952051623421400,14.83542138671875,-1.168550968170166,-0.48383617401123047,-0.5621304512023926
1770952051642392300,14.854392333984375,-1.721848487854004,-0.29284095764160156,-0.7249637842178345
1770952051661363200,14.87336328125,-1.6581482887268066,-0.17574119567871094,-0.3218817710876465
1770952051680334000,14.892333984375,-0.9519376754760742,0.04932880401611328,-0.5226333141326904
1770952051699305000,14.911304931640625,-1.1495423316955566,-0.06824016571044922,0.04430651664733887
1770952051718275800,14.93027587890625,-0.9025115966796875,0.3629932403564453,0.15685606002807617
1770952051737246700,14.949246826171875,-1.4546637535095215,-0.8405055999755859,-0.8097667694091797
1770952051756217600,14.968217529296876,-0.4399104118347168,-0.8748083114624023,-0.924414873123169
1770952051775188500,14.9871884765625,-0.40486955642700195,-1.0861129760742188,-0.7534406185150146
1770952051794159400,15.006159423828125,-0.9672727584838867,-0.44777965545654297,-0.713072657585144
1770952051813130200,15.025130126953124,-1.63077974319458,-1.0150823593139648,-0.6791095733642578
1770952051832101000,15.04410107421875,-0.572242259979248,-0.910344123840332,-0.6747148036956787
1770952051851072000,15.063072021484375,-1.7682890892028809,-0.7140884399414062,0.3408827781677246
1770952051870043000,15.08204296875,-1.6719896793365479,-0.037125587463378906,-0.5599286556243896
1770952051889013800,15.101013671875,-1.7622685432434082,-1.136775016784668,-1.1939165592193604
1770952051907984600,15.119984619140626,-0.3402590751647949,-0.33427906036376953,-0.9322094917297363
1770952051926955500,15.13895556640625,-0.4127035140991211,-0.04166126251220703,-0.2729651927947998
1770952051945926400,15.157926513671875,-0.8455471992492676,-0.5047750473022461,-0.5723726749420166
1770952051964897300,15.176897216796876,-0.9986233711242676,-0.7291107177734375,-0.6117374897003174
1770952051983868200,15.1958681640625,-2.3181216716766357,-0.588221549987793,-0.7953732013702393
1770952052002839000,15.214839111328125,-2.33506441116333,-0.5426731109619141,-0.4568796157836914
1770952052031295200,15.243295166015624,-1.5140352249145508,-1.2748947143554688,-0.8874392509460449
1770952052050266000,15.26226611328125,-0.4519515037536621,-1.1878232955932617,-0.7217628955841064
1770952052069237000,15.281237060546875,-2.2240796089172363,-1.502751350402832,-0.8076741695404053
1770952052088208000,15.300207763671875,-1.3296763896942139,-1.3800411224365234,-0.8741036653518677
1770952052107178800,15.3191787109375,-1.169693946838379,-1.129652976989746,-0.5268876552581787
1770952052126149600,15.338149658203125,-2.5861802101135254,-0.8938007354736328,-0.9726619720458984
1770952052145120500,15.35712060546875,-0.9755029678344727,-0.14379501342773438,-0.4610790014266968
1770952052164091100,15.376091064453124,-1.3218693733215332,0.2385406494140625,0.16837430000305176
1770952052183062000,15.39506201171875,-1.772186279296875,-0.4333505630493164,-0.4888150691986084
1770952052202033000,15.414032958984375,-1.487438678741455,-0.9807119369506836,-0.36889052391052246
1770952052221003800,15.433003662109375,-1.1511387825012207,-0.501368522644043,-0.4348611831665039
1770952052239974700,15.451974609375,-1.1621613502502441,-0.6814346313476562,-0.5938043594360352
1770952052258945500,15.470945556640626,-1.3713555335998535,-1.1664915084838867,-0.6905167102813721
1770952052277916200,15.489916259765625,-1.2977135181427002,-0.5048866271972656,-0.9892122745513916
1770952052296887000,15.508886962890625,-1.3447575569152832,0.7021722793579102,-0.2887418270111084
1770952052315858000,15.52785791015625,-1.8017969131469727,0.41178226470947266,0.13094854354858398
1770952052334828800,15.546828857421875,-1.2637591361999512,-0.1590290069580078,-0.5682802200317383
1770952052353799700,15.565799560546875,-1.629992961883545,-0.5047788619995117,-0.5474393367767334
1770952052382255900,15.594255859375,-1.6857171058654785,-0.25153160095214844,-0.615562915802002
1770952052401226800,15.613226806640625,-1.9679465293884277,-0.9132480621337891,-0.8046187162399292
1770952052420197400,15.632197265625,-2.205265998840332,-0.4804267883300781,-0.4656616449356079
1770952052439168300,15.651168212890624,-1.407963752746582,0.16259765625,-0.3878593444824219
1770952052458139100,15.67013916015625,-0.9181928634643555,-0.1722860336303711,-0.7471860647201538
1770952052477109800,15.68910986328125,-1.7359514236450195,-0.1514902114868164,-0.5489420890808105
1770952052496080600,15.70808056640625,-1.7307226657867432,-0.09901618957519531,-0.09682202339172363
1770952052515051500,15.727051513671874,-0.9812660217285156,-0.5847139358520508,-0.780370831489563
1770952052534022400,15.7460224609375,-2.043282985687256,-0.7590036392211914,-0.7768654823303223
1770952052552993000,15.764992919921875,-1.7972588539123535,-0.3719663619995117,-0.8960745334625244
1770952052571964000,15.7839638671875,-1.98195219039917,-0.19544506072998047,-0.6708343029022217
1770952052590934800,15.802934814453126,-1.601381778717041,-0.2348785400390625,-0.7539546489715576
1770952052609905400,15.821905517578125,-1.3116488456726074,0.32906532287597656,-0.7729268074035645
1770952052628876300,15.840876220703125,-1.81744384765625,0.3481788635253906,-0.6383663415908813
1770952052647847200,15.85984716796875,-2.49513578414917,0.39721107482910156,-0.6132113933563232
1770952052666817800,15.87881787109375,-1.3262691497802734,0.3985319137573242,-0.7923882007598877
1770952052685788700,15.89778857421875,-0.2718181610107422,0.18175220489501953,-0.7697333097457886
1770952052704759600,15.916759521484375,-1.661323070526123,-0.4772377014160156,-0.12704944610595703
1770952052723730200,15.935730224609374,-1.182220458984375,-0.7343997955322266,-1.1200793981552124
1770952052742701000,15.954701171875,-1.0316953659057617,-0.7042675018310547,-0.9468960762023926
1770952052761672000,15.973671875,-1.0513803958892822,-0.2716245651245117,-0.7125084400177002
1770952052780642800,15.992642822265625,-1.3642034530639648,-0.7557468414306641,-1.1843338012695312
1770952052799613400,16.011613525390626,-1.0721790790557861,-0.3313159942626953,-0.7712951898574829
1770952052818584300,16.030584228515625,-1.8164587020874023,-0.382843017578125,-1.0342082977294922
1770952052837555000,16.049554931640625,-2.2034530639648438,-0.4651508331298828,-0.9507213830947876
1770952052856525800,16.06852587890625,-1.4683270454406738,-0.04125690460205078,-0.6799110174179077
1770952052903953000,16.115952880859375,-1.1382732391357422,-0.4792938232421875,-0.7629557847976685
1770952052922923500,16.134923583984374,-0.994478702545166,-0.9564476013183594,-0.6612683534622192
1770952052941894100,16.15389404296875,-0.8948202133178711,-1.562922477722168,-1.1104981899261475
1770952052960865000,16.172864990234373,-1.0444979667663574,-1.1294679641723633,-0.8453773260116577
1770952052979836000,16.1918359375,-1.3888351917266846,-0.7802581787109375,-0.9093289375305176
1770952052998806800,16.210806884765624,-1.2689104080200195,0.059295654296875,-0.8101381063461304
1770952053017777400,16.22977734375,-1.621628761291504,-0.8148250579833984,-1.0942838191986084
1770952053036748000,16.248748046875,-0.9102015495300293,-0.38324737548828125,-0.7019867897033691
1770952053055719000,16.267718994140626,-0.7654852867126465,-1.1129045486450195,-0.9001246690750122
1770952053074689800,16.286689697265626,-1.6853201389312744,-0.49326419830322266,-0.6617625951766968
1770952053093660400,16.305660400390625,-1.1671326160430908,-0.45043087005615234,-0.8572925329208374
1770952053112631300,16.32463134765625,-0.9069163799285889,-0.2767000198364258,-0.9300031661987305
1770952053131602000,16.343601806640624,-1.5745794773101807,-0.36028575897216797,-0.44996774196624756
1770952053150572800,16.36257275390625,-1.3725745677947998,-0.3524007797241211,-0.6882294416427612
1770952053169543400,16.38154345703125,-0.929532527923584,-1.581751823425293,-0.9718559980392456
1770952053188514000,16.40051416015625,-0.8837437629699707,-0.9775638580322266,-0.7064946889877319
1770952053207485000,16.41948486328125,-1.2021174430847168,-0.35478782653808594,-0.9952594041824341
1770952053226455800,16.438455810546873,-1.43589186668396,-0.0946969985961914,-0.4973268508911133
1770952053245426400,16.457426513671876,-1.1376714706420898,-0.4675750732421875,-0.6516642570495605
1770952053264397000,16.47639697265625,-1.4008111953735352,-0.4277029037475586,-0.5229288339614868
1770952053283368000,16.495367919921875,-1.050081729888916,-0.3262825012207031,-0.5618554353713989
1770952053302338600,16.514338623046875,-1.156069278717041,0.030454635620117188,-0.9171375036239624
1770952053321309400,16.533309326171874,-1.3403470516204834,-0.3495006561279297,-0.818345308303833
1770952053340280300,16.5522802734375,-1.446798324584961,-0.062401771545410156,-0.8686366677284241
1770952053359251000,16.5712509765625,-0.880793571472168,0.2171478271484375,-0.7922078371047974
1770952053378221600,16.5902216796875,-1.2844147682189941,0.5065774917602539,-0.27967023849487305
1770952053397192400,16.6091923828125,-1.4724326133728027,-0.28305912017822266,-0.6053013205528259
1770952053416163000,16.6281630859375,-0.2998685836791992,0.5004911422729492,-0.6074956655502319
1770952053435134000,16.647134033203123,-0.5926675796508789,0.3920307159423828,-0.294702410697937
1770952053454104600,16.6661044921875,-1.2480878829956055,-0.43302249908447266,-0.30480241775512695
1770952053473075200,16.6850751953125,0.03531932830810547,-0.5643463134765625,-0.7502998113632202
1770952053492046000,16.704046142578125,-0.16907215118408203,-0.16391944885253906,-0.11114442348480225
1770952053511016700,16.7230166015625,-1.581596851348877,0.2767314910888672,-0.3938939571380615
1770952053529987600,16.741987548828124,-0.8905372619628906,-1.2307043075561523,-0.569238543510437
1770952053548958200,16.760958251953124,-0.17441606521606445,-1.1348752975463867,-0.09380614757537842
1770952053567928800,16.7799287109375,0.15880084037780762,-0.9053611755371094,-0.829481840133667
1770952053586899500,16.7988994140625,-0.31585693359375,-0.11709117889404297,-0.31675493717193604
1770952053605870300,16.817870361328126,-1.0918676853179932,0.3402824401855469,-0.4141801595687866
1770952053624841000,16.836841064453125,-1.200979232788086,-0.015890121459960938,-0.7920726537704468
1770952053643811800,16.855811767578125,-1.4285621643066406,-1.068943977355957,-0.28845036029815674
1770952053662782500,16.874782470703124,-0.8952059745788574,-0.9528436660766602,-0.8309666514396667
1770952053681753300,16.89375341796875,-0.24360895156860352,-1.2045669555664062,-1.1159567832946777
1770952053700724000,16.912723876953127,-0.38051533699035645,-0.6685762405395508,-0.7837316989898682
1770952053719694600,16.931694580078126,-0.449077844619751,-1.099456787109375,-0.5924105048179626
1770952053738665200,16.950665283203126,-0.4073779582977295,-1.2433662414550781,-0.435571551322937
1770952053757636000,16.969635986328125,-0.03661179542541504,-1.5250177383422852,-0.6432267427444458
1770952053776606700,16.988606689453125,-0.4079020023345947,-0.9988393783569336,-1.358038306236267
1770952053795577300,17.007577392578124,-1.1447081565856934,-1.471329689025879,-0.6839863657951355
1770952053814548200,17.02654833984375,-0.10115790367126465,-0.9083347320556641,-0.5932055115699768
1770952053843004200,17.055004150390626,-0.9709904193878174,-0.39448070526123047,-0.15278959274291992
1770952053861974800,17.073974853515626,-0.46572256088256836,-0.02868175506591797,-0.8213942050933838
1770952053880945400,17.0929453125,-0.4460165500640869,-0.13300800323486328,-0.7238178253173828
1770952053899916300,17.111916259765625,-0.8837096691131592,-0.059478759765625,-0.5709987878799438
1770952053918887000,17.130886962890624,-0.5904145240783691,-1.0793991088867188,-0.7604800462722778
1770952053937857800,17.14985791015625,-0.43256044387817383,-0.9803953170776367,-1.2514784336090088
1770952053956828400,17.168828369140623,-0.8330800533294678,-0.37766075134277344,-1.1632580757141113
1770952053975799000,17.187799072265626,-0.1605832576751709,0.15900802612304688,-0.9338659644126892
1770952053994769700,17.206769775390626,-0.4553494453430176,-0.7594165802001953,-0.6511535048484802
1770952054013740300,17.225740234375,-0.6800642013549805,-1.0497026443481445,-0.4450572729110718
1770952054032711200,17.244711181640625,-0.5692477226257324,-1.0186576843261719,-1.2953492403030396
1770952054051681800,17.263681884765624,-0.25733089447021484,-0.46357250213623047,-0.7662330269813538
1770952054070652400,17.28265234375,-1.0978164672851562,-0.5205764770507812,-1.2274069786071777
1770952054089623000,17.301623046875,-0.9025983810424805,-1.1998090744018555,-0.930451512336731
1770952054108594000,17.320593994140626,-0.46983861923217773,-0.3086214065551758,-0.7974886298179626
1770952054127564500,17.339564453125,-0.8782331943511963,-0.47293663024902344,-1.236605167388916
1770952054146535200,17.35853515625,-0.7235920429229736,0.25996971130371094,-0.4981493353843689
1770952054165505800,17.377505859375,-1.1802053451538086,0.8873786926269531,-0.7718347311019897
1770952054184476700,17.3964765625,-0.6652393341064453,0.15467071533203125,-0.7752032279968262
1770952054203447300,17.415447265625,-0.5444808006286621,-0.4113273620605469,-0.6425154209136963
1770952054222418000,17.43441796875,-0.4389309883117676,-0.31647777557373047,-1.100785255432129
1770952054241388500,17.453388427734374,-0.5325167179107666,-0.7003211975097656,-1.4672662019729614
1770952054260359200,17.472359130859374,-0.41605329513549805,-0.18091773986816406,-1.7620985507965088
1770952054279329800,17.491329833984373,-0.4647696018218994,0.9900941848754883,-1.0310434103012085
1770952054298300700,17.51030078125,-0.8085052967071533,0.8152885437011719,-0.5519142150878906
1770952054317271300,17.529271240234376,-0.9911773204803467,0.9384212493896484,-0.5592399835586548
1770952054336242000,17.548241943359375,-1.1900591850280762,0.5428628921508789,-0.8270978331565857
1770952054355212500,17.567212646484375,-0.8885023593902588,-0.5053901672363281,-1.481900691986084
1770952054374183200,17.58618310546875,-0.06947755813598633,-0.8424253463745117,-1.419881820678711
1770952054393154000,17.605154052734374,-0.7977790832519531,-1.415308952331543,-1.3800610303878784
1770952054412124700,17.624124755859373,-0.6551170349121094,-0.6159830093383789,-1.5263304710388184
1770952054431095300,17.64309521484375,0.015475273132324219,-0.4713621139526367,-1.5569944381713867
1770952054450066000,17.66206591796875,-0.9724555015563965,-1.0010795593261719,-1.553873896598816
1770952054469036500,17.68103662109375,-1.0254731178283691,-0.8824453353881836,-1.8871049880981445
1770952054488007200,17.700007080078127,0.02782893180847168,0.16772174835205078,-1.1463327407836914
1770952054506977800,17.718977783203126,-0.7400293350219727,0.2784738540649414,-0.7989563941955566
1770952054525948400,17.737948486328126,-0.44315409660339355,-0.6814069747924805,-0.9215476512908936
1770952054544919000,17.7569189453125,-0.9585139751434326,-0.4154796600341797,-0.49576473236083984
1770952054563890000,17.775889892578125,0.2317197322845459,-0.8247413635253906,-1.5245386362075806
1770952054582860500,17.794860595703124,-0.7484397888183594,-0.8200387954711914,-1.0382667779922485
1770952054601831200,17.8138310546875,-1.0651779174804688,0.1217794418334961,-1.1069324016571045
1770952054620801800,17.8328017578125,0.15729856491088867,0.4040679931640625,-0.8441207408905029
1770952054639772400,17.8517724609375,-0.13294148445129395,-0.9636039733886719,-1.0700548887252808
1770952054658743000,17.870742919921874,-1.1416394710540771,-0.7583370208740234,-0.6770823001861572
1770952054677713700,17.889713623046877,-0.6377105712890625,-0.0049839019775390625,-0.813441812992096
1770952054696684300,17.908684326171876,-0.853100061416626,-0.21234607696533203,-1.628445029258728
1770952054715655000,17.927655029296876,-0.14515447616577148,-0.4846153259277344,-1.6367292404174805
1770952054734625800,17.946625732421875,-0.5092651844024658,-0.8728199005126953,-0.806974470615387
1770952054753596400,17.965596435546875,-0.0084991455078125,0.0554351806640625,-0.9211448431015015
1770952054772567000,17.984567138671874,-0.21402382850646973,0.5228900909423828,-1.4110684394836426
1770952054791537700,18.00353759765625,-1.4660661220550537,0.06763172149658203,-0.9475606679916382
1770952054810508300,18.02250830078125,-0.6956765651702881,-0.053259849548339844,-0.48324668407440186
1770952054829479000,18.04147900390625,-0.20525789260864258,-0.07492637634277344,-0.6621909141540527
1770952054848449500,18.060449462890624,-0.3877999782562256,0.10377788543701172,-1.0504049062728882
1770952054867420200,18.079420166015623,-0.6714949607849121,-0.9199457168579102,-1.568780541419983
1770952054886390800,18.098390869140626,-0.7089338302612305,0.028718948364257812,-0.7853885889053345
1770952054905361400,18.117361328125,0.05891060829162598,0.23453998565673828,-1.0781269073486328
1770952054924332000,18.13633203125,-0.4263904094696045,0.02628803253173828,-1.004044771194458
1770952054943302700,18.155302734375,-1.0674850940704346,-0.3784303665161133,-0.8050963878631592
1770952054962273300,18.174273193359376,-0.5951886177062988,0.10701370239257812,-0.9732443690299988
1770952054981244000,18.193243896484375,-0.5780007839202881,-0.73333740234375,-1.3636804819107056
1770952055000214500,18.212214599609375,-0.13148236274719238,-1.3101835250854492,-1.6874959468841553
1770952055019185200,18.23118505859375,-0.7020528316497803,0.07298660278320312,-1.201831579208374
1770952055038155800,18.25015576171875,-0.3117372989654541,0.5663948059082031,-0.9035061001777649
1770952055057126400,18.26912646484375,-0.2972712516784668,0.12062835693359375,-0.6259204149246216
1770952055076097000,18.288096923828125,0.8864438533782959,-0.4285745620727539,-0.896005392074585
1770952055095067600,18.307067626953124,-0.417996883392334,-1.0245752334594727,-0.8168829679489136
1770952055114038300,18.326038330078124,-1.0885705947875977,-0.8021116256713867,-1.1313103437423706
1770952055133009000,18.3450087890625,0.44712114334106445,-0.5205583572387695,-1.5050121545791626
1770952055151979500,18.3639794921875,-1.5694243907928467,-0.7804222106933594,-1.3850290775299072
1770952055170950100,18.3829501953125,-1.3230407238006592,-0.5757331848144531,-1.2852460145950317
1770952055189920800,18.401920654296877,0.2959270477294922,-1.0519323348999023,-0.9630523920059204
1770952055208891400,18.420891357421876,0.16997003555297852,-0.6842260360717773,-1.052542805671692
1770952055227862000,18.439862060546876,-0.8849382400512695,-0.7446222305297852,-1.0385994911193848
1770952055246832600,18.45883251953125,-0.34781670570373535,-0.907414436340332,-1.0244531631469727
1770952055265803300,18.47780322265625,0.6769187450408936,-0.5492086410522461,-0.788172721862793
1770952055284774000,18.49677392578125,0.20699214935302734,-0.05357551574707031,-0.8533079028129578
1770952055303744500,18.51574462890625,-0.30910325050354004,-0.6607236862182617,-0.9751763343811035
1770952055322715100,18.534715087890625,0.012646198272705078,-0.4895591735839844,-0.9987436532974243
1770952055341685800,18.553685791015624,-0.05707740783691406,0.5197887420654297,-0.7476873993873596
1770952055360656400,18.572656494140624,-0.18254351615905762,-0.0006456375122070312,-0.7846642732620239
1770952055379627000,18.591626953125,-0.9661705493927002,-1.2912254333496094,-1.7493668794631958
1770952055398597600,18.61059765625,-0.8225488662719727,-1.260488510131836,-1.854880452156067
1770952055417568300,18.629568359375,-0.3736612796783447,-0.4437551498413086,-0.7682132720947266
1770952055436539000,18.648538818359373,-0.6351368427276611,-0.06167888641357422,-1.0450239181518555
1770952055455509500,18.667509521484376,-0.8655402660369873,0.0098114013671875,-0.935154139995575
1770952055474480000,18.686480224609376,0.10810399055480957,-0.05445384979248047,-1.0184566974639893
1770952055493450500,18.705450439453124,0.3270392417907715,-0.7597475051879883,-0.5100158452987671
1770952055512421000,18.724421142578127,0.6580355167388916,-0.39853382110595703,-0.678622305393219
1770952055540877000,18.752876953125,-0.615354061126709,0.32371997833251953,-1.170209288597107
1770952055559847700,18.77184765625,-0.05584597587585449,0.18812942504882812,-0.8573139905929565
1770952055578818300,18.790818359375,-0.804671049118042,0.6382331848144531,-1.0034396648406982
1770952055597789000,18.809788818359376,-1.0745112895965576,0.4359884262084961,-0.8550589680671692
1770952055616759600,18.828759521484375,-0.8143570423126221,0.2155923843383789,-1.3020697832107544
1770952055635730200,18.847730224609375,-0.6612927913665771,1.2426528930664062,-0.80113685131073
1770952055654700800,18.86670068359375,-0.7851114273071289,1.3510613441467285,-0.7902573347091675
1770952055673671400,18.88567138671875,-0.9358699321746826,0.4147624969482422,-1.1425397396087646
1770952055692642000,18.90464208984375,-0.9243729114532471,-0.19440937042236328,-0.8858202695846558
1770952055711612700,18.92361279296875,-0.8308098316192627,0.9181241989135742,-0.946255624294281
1770952055730583000,18.9425830078125,-0.6915433406829834,0.9882659912109375,-0.7745213508605957
1770952055749553700,18.9615537109375,-0.18500041961669922,-0.8962202072143555,-1.2243984937667847
1770952055768524300,18.980524169921875,0.17188310623168945,-1.3143424987792969,-1.1864007711410522
1770952055787495000,18.999494873046874,-0.21860051155090332,-0.8210058212280273,-0.9736765623092651
1770952055806465500,19.018465576171874,0.18812060356140137,-0.17859745025634766,-0.8120365738868713
1770952055825436200,19.037436279296877,-0.9265990257263184,-0.7255878448486328,-1.170791745185852
1770952055844406800,19.05640673828125,-0.44809937477111816,-0.026552200317382812,-2.1526286602020264
1770952055863377400,19.07537744140625,-0.7772665023803711,-0.3757495880126953,-0.6389560103416443
1770952055882348000,19.09434814453125,0.02537703514099121,-0.08096694946289062,-1.248415470123291
1770952055901318400,19.113318359375,-0.760282039642334,-0.2094573974609375,-0.8961182236671448
1770952055920289000,19.1322890625,-0.3010873794555664,-0.07128334045410156,-0.7142347097396851
1770952055939259600,19.151259765625,0.25804924964904785,-0.44926929473876953,-1.0216000080108643
1770952055958230300,19.170230224609377,0.8927950859069824,-2.037151336669922,-1.747437596321106
1770952055977201000,19.189200927734376,0.34725213050842285,-1.203390121459961,-1.4734923839569092
1770952055996171300,19.208171142578124,-0.6831495761871338,0.15207481384277344,-1.5890671014785767
1770952056015142000,19.227141845703127,-0.42000746726989746,-0.029413223266601562,-1.2516670227050781
1770952056034112500,19.246112548828126,0.017223834991455078,-0.18765640258789062,-1.6958634853363037
1770952056053083100,19.265083251953126,-0.6437888145446777,-0.4635496139526367,-1.2469332218170166
1770952056072053800,19.2840537109375,-0.7645912170410156,-0.5800962448120117,-0.9420474171638489
1770952056091024400,19.3030244140625,-0.1297299861907959,-0.4426898956298828,-1.442747712135315
1770952056109995000,19.3219951171875,0.45412540435791016,-0.7160234451293945,-1.3390201330184937
1770952056128965400,19.34096533203125,-0.1606450080871582,-0.677729606628418,-1.001147747039795
1770952056147936000,19.35993603515625,-0.05747628211975098,-0.21383094787597656,-1.8371026515960693
1770952056166906600,19.37890673828125,-0.5643067359924316,-1.633279800415039,-2.485976219177246
1770952056185877200,19.397877197265625,-0.24612951278686523,-0.4702444076538086,-1.4298808574676514
1770952056204847600,19.41684765625,-0.6578037738800049,1.362391471862793,-1.2783658504486084
1770952056223818200,19.435818359375,-1.7058672904968262,0.2923870086669922,-1.111369252204895
1770952056252274200,19.464274169921875,-0.9827978610992432,1.0548028945922852,-1.5238429307937622
1770952056271244800,19.483244873046875,-0.5709247589111328,0.060278892517089844,-1.7694876194000244
1770952056290215400,19.50221533203125,-0.6773631572723389,-0.46923351287841797,-1.2761764526367188
1770952056309185800,19.521185791015625,-0.7443878650665283,0.513310432434082,-2.025437116622925
1770952056328156400,19.540156494140625,-0.84539794921875,0.4825143814086914,-1.9070193767547607
1770952056347127000,19.559126953125,-0.8091742992401123,1.0204963684082031,-0.9808933138847351
1770952056366097400,19.578097412109376,-1.0222036838531494,1.223769187927246,-1.4733519554138184
1770952056385068000,19.597068115234375,-0.16386651992797852,0.08876514434814453,-1.562095284461975
1770952056404038700,19.61603857421875,-0.5636003017425537,0.035503387451171875,-1.3269708156585693
1770952056423009300,19.63500927734375,-0.2357189655303955,0.5119237899780273,-1.312300682067871
1770952056441980000,19.65397998046875,0.39377307891845703,0.42247772216796875,-1.0404279232025146
1770952056460950300,19.6729501953125,-1.0096709728240967,-0.015460968017578125,-2.0489931106567383
1770952056479921000,19.6919208984375,0.11292600631713867,-0.3750743865966797,-1.777327299118042
1770952056498891500,19.7108916015625,0.8332066535949707,-0.35787010192871094,-1.190147042274475
1770952056517862000,19.72986181640625,0.08150339126586914,-0.4663829803466797,-1.9674795866012573
1770952056536832500,19.74883251953125,0.19431281089782715,0.35161781311035156,-1.5497686862945557
1770952056555803100,19.76780322265625,-0.3810884952545166,-0.5065164566040039,-1.831742763519287
1770952056574773800,19.786773681640625,-0.17330074310302734,-0.6789541244506836,-1.6679000854492188
1770952056593744100,19.805744140625,0.8693878650665283,0.2083454132080078,-1.2919812202453613
1770952056612714800,19.82471484375,-1.306135892868042,-0.4465017318725586,-1.1877363920211792
1770952056631685400,19.843685302734375,-0.849933385848999,-0.7057313919067383,-1.8461717367172241
1770952056650655700,19.86265576171875,0.34624814987182617,-0.11763763427734375,-1.715863823890686
1770952056669626400,19.88162646484375,0.5934629440307617,-0.07377910614013672,-1.4572256803512573
1770952056688597000,19.900596923828125,-0.2148122787475586,0.14066123962402344,-1.460428237915039
1770952056707567600,19.919567626953125,-1.2920737266540527,-0.4934854507446289,-1.6306955814361572
1770952056726538000,19.9385380859375,0.22340703010559082,0.18923664093017578,-1.593934416770935
1770952056745508600,19.957508544921875,-0.07100796699523926,0.5446233749389648,-1.4448344707489014
1770952056764479200,19.976479248046875,-0.5488708019256592,0.7194328308105469,-1.453374981880188
1770952056783449600,19.99544970703125,-0.6313924789428711,-0.0064411163330078125,-1.6740267276763916
1770952056802420200,20.014420166015626,0.5961768627166748,-0.27094268798828125,-1.4772144556045532
1770952056821390800,20.033390869140625,0.9083664417266846,-0.030564308166503906,-1.22780179977417
1770952056840361500,20.052361572265625,0.16259360313415527,0.019675254821777344,-1.5173969268798828
1770952056859331800,20.071331787109376,0.47652149200439453,-0.16675949096679688,-1.2269564867019653
1770952056878302500,20.090302490234375,0.5404205322265625,0.11799430847167969,-1.832081913948059
1770952056897272800,20.10927294921875,0.8345448970794678,-0.30663299560546875,-1.5021758079528809
1770952056916243500,20.128243408203126,0.4482126235961914,-0.08982658386230469,-1.1398890018463135
1770952056935214000,20.147214111328125,-0.0922861099243164,-0.7714357376098633,-1.4034724235534668
1770952056954184400,20.166184326171877,1.3294854164123535,-0.32776737213134766,-1.8468434810638428
1770952056973155000,20.185155029296876,0.7565596103668213,-0.42621517181396484,-1.6692906618118286
1770952056992125700,20.204125732421875,-0.18703317642211914,0.20203781127929688,-1.3548593521118164
1770952057011096000,20.223095947265627,0.7549741268157959,-0.07088088989257812,-1.3815302848815918
1770952057030066700,20.242066650390626,0.6635134220123291,-0.46251964569091797,-1.5086560249328613
1770952057049037000,20.261037109375,0.07923483848571777,-0.31278038024902344,-1.446994662284851
1770952057068007700,20.280007568359373,0.44360804557800293,0.1481952667236328,-1.572221040725708
1770952057086978300,20.298978271484376,0.3474886417388916,0.22708415985107422,-0.9946163296699524
1770952057105949000,20.317948974609376,0.844224214553833,0.2216329574584961,-1.5553756952285767
1770952057124919300,20.336919189453123,0.9097499847412109,-0.36576080322265625,-1.7821320295333862
1770952057143890000,20.355889892578126,-0.11098718643188477,-0.09489059448242188,-0.7904301881790161
1770952057162860300,20.3748603515625,0.3311429023742676,0.1554126739501953,-1.4522181749343872
1770952057181831000,20.393830810546874,1.6309020519256592,-0.1533060073852539,-1.5713785886764526
1770952057200801500,20.412801513671877,0.5670945644378662,0.2873220443725586,-0.8770251274108887
1770952057219772000,20.43177197265625,0.5744802951812744,0.2584190368652344,-1.3971450328826904
1770952057238742500,20.450742431640624,0.8892738819122314,-0.2042245864868164,-1.050535798072815
1770952057257713200,20.469713134765627,0.6530873775482178,0.04733467102050781,-1.0751817226409912
1770952057276683500,20.48868359375,0.7738926410675049,0.7559022903442383,-1.3975287675857544
1770952057295654100,20.507654052734374,0.6402299404144287,0.4145536422729492,-0.7824379205703735
1770952057314624800,20.526624755859373,1.1560478210449219,0.3364677429199219,-1.129154086112976
1770952057333595100,20.54559521484375,0.7486615180969238,0.44171142578125,-0.894020140171051
1770952057352565800,20.564565673828124,0.26755690574645996,0.3622608184814453,-1.0786901712417603
1770952057371536100,20.5835361328125,0.4595198631286621,0.12279510498046875,-0.9783427715301514
1770952057390506800,20.6025068359375,1.417309284210205,0.5880374908447266,-0.9295597076416016
1770952057409477400,20.621477294921874,0.673983097076416,0.40874385833740234,-0.7083908915519714
1770952057428447700,20.64044775390625,0.15291929244995117,-0.14417266845703125,-0.534003734588623
1770952057447418400,20.65941845703125,1.430452823638916,-0.16107654571533203,-1.0046899318695068
1770952057466388700,20.678388671875,1.0846896171569824,0.10082054138183594,-0.6540572643280029
1770952057485359400,20.697359375,0.36013031005859375,0.3596839904785156,-0.808364987373352
1770952057504330000,20.716330078125,0.8657817840576172,-0.08354759216308594,-0.655828595161438
1770952057523300400,20.73530029296875,1.2528953552246094,-0.019843101501464844,-0.6405957937240601
1770952057542271000,20.75427099609375,0.29324817657470703,-0.08619213104248047,-0.6700584888458252
1770952057561241300,20.773241455078125,0.603337287902832,-0.21157550811767578,-0.550094485282898
1770952057580212000,20.7922119140625,1.0470304489135742,0.1212778091430664,-0.7291561961174011
1770952057599182300,20.811182373046876,0.6081814765930176,0.19272804260253906,-0.33561354875564575
1770952057618153000,20.830153076171875,1.181215763092041,0.49692535400390625,-0.44849327206611633
1770952057637123300,20.849123291015626,0.6941337585449219,0.38936901092529297,-0.21312376856803894
1770952057656094000,20.868093994140626,0.44629573822021484,0.2358856201171875,-0.20921951532363892
1770952057675064600,20.887064697265625,0.5134706497192383,0.4008464813232422,-0.10804912447929382
1770952057694035000,20.906034912109376,0.2994236946105957,0.6097316741943359,-0.1306402087211609
1770952057713005600,20.925005615234376,1.0653934478759766,0.32907772064208984,-0.16719776391983032
1770952057741461200,20.953461181640623,0.841519832611084,0.030542373657226562,-0.2556978762149811
1770952057760431900,20.972431884765626,0.5130472183227539,-0.033946990966796875,-0.27217260003089905
1770952057779402200,20.99140234375,0.6017990112304688,0.5346698760986328,-0.029391497373580933
1770952057798372900,21.010372802734373,0.4767603874206543,0.4422006607055664,-0.1646346151828766
1770952057817343200,21.02934326171875,0.3912162780761719,0.5987386703491211,-0.14441892504692078
1770952057836313900,21.04831396484375,1.390723705291748,0.46693897247314453,-0.05307888984680176
1770952057855284200,21.0672841796875,0.8358473777770996,0.5035562515258789,0.07605764269828796
1770952057874254800,21.0862548828125,0.0006418228149414062,0.4157562255859375,0.01907232403755188
1770952057893225200,21.10522509765625,2.020282745361328,0.5563058853149414,-0.3074745237827301
1770952057912195800,21.12419580078125,1.190237045288086,0.8385729789733887,-0.07026675343513489
1770952057931166500,21.14316650390625,0.5943150520324707,0.22922611236572266,0.20056317746639252
1770952057959622100,21.1716220703125,0.6258645057678223,0.3609962463378906,0.26395079493522644
1770952057978592500,21.190592529296875,1.0616769790649414,0.47188377380371094,0.0009841620922088623
1770952057997563100,21.209563232421875,0.8357357978820801,0.25333690643310547,0.09141294658184052
1770952058026018800,21.238018798828126,1.1507420539855957,0.1803722381591797,-0.17122632265090942
1770952058044989200,21.2569892578125,0.759221076965332,0.06742000579833984,0.10196225345134735
1770952058063959800,21.275959716796876,0.8183393478393555,0.2571697235107422,0.2537792921066284
1770952058082930200,21.29493017578125,0.04741191864013672,0.4466552734375,0.07620954513549805
1770952058101900800,21.31390087890625,0.6588606834411621,0.26464271545410156,-0.32775822281837463
1770952058120871200,21.33287109375,0.7967371940612793,0.33779048919677734,-0.12892797589302063
1770952058139841800,21.351841796875,0.217987060546875,0.3953876495361328,-0.06906574964523315
1770952058158812200,21.370812255859374,0.5509963035583496,0.34368228912353516,-0.34856826066970825
1770952058177782800,21.38978271484375,0.8365020751953125,0.5247588157653809,-0.059931591153144836
1770952058196753200,21.408753173828124,0.1598496437072754,0.6551618576049805,0.1025419682264328
1770952058215723800,21.427723876953124,0.3675804138183594,0.8346900939941406,-0.03485707938671112
1770952058234694100,21.446694091796875,1.0231356620788574,0.4198036193847656,-0.037876665592193604
1770952058253664800,21.465664794921874,0.4130415916442871,0.0953073501586914,-0.4632698893547058
1770952058272635100,21.48463525390625,0.8666706085205078,0.12450599670410156,-0.4675641655921936
1770952058291605500,21.50360546875,1.4486994743347168,0.08211994171142578,-0.27150124311447144
1770952058310576000,21.522576171875,0.25679588317871094,-0.1695098876953125,-0.5040401220321655
1770952058329546800,21.541546630859376,1.15092134475708,-0.21806049346923828,-0.3290688991546631
1770952058348517000,21.56051708984375,1.5218186378479004,-0.5816574096679688,-0.819766104221344
1770952058367487500,21.579487548828126,0.705906867980957,-0.3768949508666992,-0.6420075297355652
1770952058386458000,21.5984580078125,0.804783821105957,-0.24960803985595703,-0.06463363766670227
1770952058405428500,21.617428466796873,0.8935503959655762,0.05770587921142578,-0.5555354356765747
1770952058424399000,21.636399169921877,0.8691864013671875,-0.05176830291748047,-0.5040298104286194
1770952058443369500,21.655369384765624,1.314201831817627,-0.14083290100097656,-0.7034558653831482
1770952058462340000,21.674340087890624,1.0542716979980469,-0.2897777557373047,-0.5153682231903076
1770952058481310500,21.693310546875,0.024503231048583984,-0.02465343475341797,-0.1927967667579651
1770952058500280800,21.71228076171875,1.085404396057129,-0.2167835235595703,-1.3254280090332031
1770952058519251500,21.73125146484375,0.5463180541992188,0.45189809799194336,-0.9481821060180664
1770952058538221800,21.750221923828125,0.1340494155883789,0.3156623840332031,-0.33617109060287476
1770952058557192200,21.769192138671876,0.4383726119995117,0.5157041549682617,-0.7577015161514282
1770952058576162800,21.788162841796876,-0.5656352043151855,0.3030834197998047,-0.7123218774795532
1770952058595133200,21.80713330078125,0.14192724227905273,0.7989568710327148,-0.3983050584793091
1770952058614103800,21.826103759765626,0.42505741119384766,1.1678690910339355,-0.9364234209060669
1770952058633074200,21.84507421875,-0.09290790557861328,1.007944107055664,-0.7248989939689636
1770952058652044800,21.864044921875,0.46779537200927734,0.5140228271484375,-0.6825932860374451
1770952058671015200,21.88301513671875,0.46854448318481445,0.800330638885498,-0.49997901916503906
1770952058689985500,21.901985595703124,0.346038818359375,0.6010570526123047,-0.7563594579696655
1770952058708956200,21.9209560546875,0.49555444717407227,0.29662036895751953,-0.8768697381019592
1770952058727926500,21.939926513671875,0.40129661560058594,0.4209713935852051,-0.7751995325088501
1770952058746897000,21.95889697265625,0.7995090484619141,-0.04745292663574219,-1.102748990058899
1770952058765867300,21.9778671875,1.422248363494873,0.1618824005126953,-0.5733508467674255
1770952058784838000,21.996837890625,0.743710994720459,0.3059225082397461,-0.9251813292503357
1770952058803808300,22.015808349609376,0.8214468955993652,0.12805938720703125,-1.0880389213562012
1770952058822778600,22.034778564453124,1.3971118927001953,0.041602134704589844,-1.100416898727417
1770952058841749200,22.053749267578127,0.2056269645690918,0.4226198196411133,-0.697148323059082
1770952058860719600,22.0727197265625,0.3336186408996582,0.33493709564208984,-0.9847352504730225
1770952058879690000,22.09168994140625,0.7906055450439453,-0.5516042709350586,-1.2445409297943115
1770952058898660600,22.11066064453125,0.6987648010253906,0.11570358276367188,-0.5427223443984985
1770952058917631000,22.129630859375,-0.036760807037353516,-0.2767505645751953,-1.0537173748016357
1770952058936601300,22.148601318359376,0.9391121864318848,-0.2991609573364258,-1.2377562522888184
1770952058955572000,22.167572021484375,1.0093083381652832,0.6410293579101562,-0.5809211730957031
1770952058974542300,22.186542236328126,-0.7094516754150391,0.41193675994873047,-0.6677148342132568
1770952058993512700,22.2055126953125,0.05724620819091797,0.17949199676513672,-0.8047806024551392
1770952059012483300,22.2244833984375,1.0388154983520508,0.3526949882507324,-0.7139819264411926
1770952059031453700,22.24345361328125,0.07538127899169922,0.04311656951904297,-0.7330206036567688
1770952059050424000,22.262424072265624,0.02489185333251953,-0.3424997329711914,-0.8716167211532593
1770952059069394700,22.281394775390623,0.21461057662963867,-0.45699310302734375,-0.9624782204627991
1770952059088365000,22.300364990234375,0.7771549224853516,-0.1953582763671875,-1.3230777978897095
1770952059107335400,22.31933544921875,0.9560713768005371,-0.5447072982788086,-1.0704841613769531
1770952059126306000,22.33830615234375,0.1916365623474121,-0.4604787826538086,-0.9056884050369263
1770952059145276400,22.3572763671875,-0.2069401741027832,-0.49855613708496094,-0.5028189420700073
1770952059164246800,22.376246826171876,0.9580478668212891,-0.4057149887084961,-1.5988061428070068
1770952059192702500,22.404702392578123,1.0687141418457031,-0.6361122131347656,-0.739373505115509
1770952059211672800,22.4236728515625,-0.15155696868896484,0.20827198028564453,-1.2155520915985107
1770952059230643200,22.442643310546874,0.00402069091796875,0.32345056533813477,-0.7857599854469299
1770952059249613800,22.46161376953125,0.5372915267944336,0.1851949691772461,-1.08559250831604
1770952059268584200,22.480584228515625,0.23343753814697266,0.2646050453186035,-1.1491460800170898
1770952059287554600,22.499554443359376,0.2317667007446289,0.3404569625854492,-0.9264106154441833
1770952059306525000,22.51852490234375,0.6139187812805176,0.09173965454101562,-1.2503607273101807
1770952059325495300,22.537495361328126,0.3578181266784668,-0.04934215545654297,-1.145737648010254
1770952059344466000,22.5564658203125,0.5468635559082031,0.29809141159057617,-1.1304175853729248
1770952059363436300,22.575436279296873,0.4403953552246094,1.2505536079406738,-1.0573441982269287
1770952059382406700,22.59440673828125,-0.5076313018798828,0.7344017028808594,-0.8753974437713623
1770952059401377000,22.613376953125,0.5110325813293457,0.5052409172058105,-1.4187726974487305
1770952059420347400,22.632347412109375,0.9430398941040039,0.7963337898254395,-1.2229933738708496
1770952059439318000,22.651318115234375,-0.1974344253540039,0.35868167877197266,-1.1318116188049316
1770952059458288400,22.670288330078126,-0.07553243637084961,0.3048677444458008,-1.132988691329956
1770952059477258800,22.6892587890625,0.8480501174926758,0.2615690231323242,-1.2817769050598145
1770952059496229000,22.70822900390625,0.6085705757141113,0.2742891311645508,-1.343453288078308
1770952059515199500,22.727199462890624,-0.0361480712890625,0.17423152923583984,-0.7153812646865845
1770952059534170000,22.746170166015624,0.4489474296569824,0.4968223571777344,-0.9648954272270203
1770952059553140500,22.765140380859375,-0.036600589752197266,0.16267871856689453,-1.548351764678955
1770952059572110800,22.78411083984375,0.8441123962402344,-0.08339977264404297,-1.2079088687896729
1770952059591081200,22.803081298828126,0.2512321472167969,-0.12249565124511719,-1.2868540287017822
1770952059610051600,22.822051513671877,0.11313724517822266,0.4812946319580078,-1.1048269271850586
1770952059629022000,22.84102197265625,0.5243411064147949,0.7120275497436523,-0.651893675327301
1770952059647992600,22.85999267578125,-0.2100358009338379,0.10026073455810547,-1.1597485542297363
1770952059666963000,22.878962890625,-0.16541194915771484,-0.17951107025146484,-1.2236170768737793
1770952059685933300,22.897933349609374,0.7580437660217285,0.1620645523071289,-1.1160176992416382
1770952059704903700,22.916903564453126,-0.05973672866821289,0.29114198684692383,-1.2506622076034546
1770952059723874000,22.9358740234375,0.32781457901000977,0.4379701614379883,-1.0523109436035156
1770952059742844700,22.9548447265625,1.014782428741455,0.26163482666015625,-1.2241945266723633
1770952059761815000,22.97381494140625,0.6126875877380371,-0.2277383804321289,-1.1491892337799072
1770952059780785400,22.992785400390623,0.33946800231933594,-0.048870086669921875,-1.1662039756774902
1770952059799755800,23.011755859375,1.01739501953125,0.5273933410644531,-1.5327754020690918
1770952059818726100,23.03072607421875,-0.3174476623535156,-0.07510566711425781,-0.8340520262718201
1770952059837696500,23.049696533203125,0.4795408248901367,0.4852104187011719,-1.3218425512313843
1770952059856667000,23.0686669921875,0.35782432556152344,-0.11324691772460938,-1.2711286544799805
1770952059875637500,23.087637451171876,-0.05292797088623047,0.36849069595336914,-0.9227520823478699
1770952059894608000,23.10660791015625,0.4124317169189453,-0.2105875015258789,-1.5311663150787354
1770952059913578200,23.125578125,0.11092233657836914,0.11025810241699219,-1.3939045667648315
1770952059932548600,23.144548583984374,0.12284994125366211,0.2764105796813965,-0.7696669101715088
1770952059951519000,23.16351904296875,0.2846107482910156,0.07501411437988281,-1.428978681564331
1770952059970489300,23.1824892578125,0.8572759628295898,0.18932151794433594,-1.4942009449005127
1770952059989459700,23.201459716796876,0.5323219299316406,0.018367767333984375,-1.0787221193313599
1770952060008430000,23.22043017578125,1.267460823059082,-0.24773597717285156,-1.7121336460113525
1770952060027400400,23.239400390625,-0.15077447891235352,-0.07380962371826172,-0.9540890455245972
1770952060046370800,23.258370849609374,0.7649269104003906,0.2719550132751465,-1.3558259010314941
1770952060065341400,23.277341552734374,0.7978715896606445,-0.11948490142822266,-1.5657501220703125
1770952060084311600,23.2963115234375,-0.30905914306640625,-0.11438465118408203,-1.359213948249817
1770952060103282200,23.3152822265625,0.7380304336547852,0.22291231155395508,-1.1704740524291992
1770952060122252500,23.33425244140625,-0.0898442268371582,-0.11217498779296875,-1.3149182796478271
1770952060141223000,23.353222900390627,0.4764227867126465,0.03921222686767578,-1.321871280670166
1770952060160193300,23.372193359375,0.5921411514282227,-0.056031227111816406,-1.4458258152008057
1770952060179163600,23.39116357421875,0.37596940994262695,-0.37375831604003906,-1.272230625152588
1770952060198134000,23.410134033203125,-0.14666128158569336,-0.09447669982910156,-0.9261566400527954
1770952060217104400,23.4291044921875,0.6901121139526367,0.5159549713134766,-1.4344608783721924
1770952060236074800,23.44807470703125,0.7901849746704102,0.2339916229248047,-1.4643663167953491
1770952060255045000,23.467045166015627,0.270235538482666,0.5899715423583984,-1.4963511228561401
1770952060274015500,23.486015380859374,0.0408482551574707,0.7139129638671875,-0.8069958686828613
1770952060292985900,23.50498583984375,-0.08327579498291016,1.0467586517333984,-0.9426666498184204
1770952060311956200,23.523956298828125,0.06090593338012695,0.06880664825439453,-1.525343418121338
1770952060330926600,23.542926513671876,0.44389963150024414,0.14536571502685547,-1.6696200370788574
1770952060349897000,23.56189697265625,0.5419392585754395,0.4689188003540039,-1.1674070358276367
1770952060368867600,23.58086767578125,-0.13507556915283203,0.2464919090270996,-0.7481098771095276
1770952060387837700,23.599837646484374,1.1964588165283203,0.3627653121948242,-1.2700846195220947
1770952060406808300,23.618808349609374,0.5050525665283203,-0.12106561660766602,-1.6499028205871582
1770952060425778400,23.6377783203125,0.40747547149658203,-0.4041295051574707,-1.5130014419555664
1770952060444749000,23.6567490234375,0.9514741897583008,0.0064296722412109375,-1.5769602060317993
1770952060463719400,23.675719482421876,0.41633129119873047,-0.1467599868774414,-0.9885096549987793
1770952060482689800,23.694689697265623,0.5812411308288574,0.18094682693481445,-1.5081698894500732
1770952060501660200,23.71366015625,0.7826666831970215,-0.17659616470336914,-1.0062742233276367
1770952060520630500,23.732630615234374,0.051407814025878906,-0.26245594024658203,-1.6123847961425781
1770952060539601000,23.751600830078125,0.16279125213623047,-0.16940879821777344,-1.5846872329711914
1770952060558571300,23.7705712890625,0.7255082130432129,0.38376474380493164,-1.0747945308685303
1770952060577541600,23.789541748046876,0.354583740234375,-0.07664155960083008,-1.3029017448425293
1770952060596512000,23.808511962890623,0.4623098373413086,-0.09178400039672852,-1.487046241760254
1770952060615482400,23.827482421875,0.15921640396118164,0.12526941299438477,-1.042202353477478
1770952060634452700,23.84645263671875,0.23905086517333984,0.2781968116760254,-1.273794174194336
