time,seconds_elapsed,z,y,x
1770952036956355800,0.16835595703125,-0.003665188793092966,-0.18081597983837128,-0.12705987691879272
1770952036975326500,0.187326416015625,0.007330377586185932,-0.1893680840730667,-0.12217295914888382
1770952036994297300,0.20629736328125,-0.03298669680953026,-0.001221729558892548,-0.09040798991918564
1770952037013268000,0.22526806640625,-0.03298669680953026,0.2162461280822754,-0.036651886999607086
1770952037032238600,0.244238525390625,0.18081597983837128,-0.13561198115348816,-0.07452550530433655
1770952037051209200,0.263209228515625,0.2528980076313019,-0.5351175665855408,0.03787361457943916
1770952037079665400,0.29166552734375,-0.02932151034474373,-0.6084213256835938,0.10506874322891235
1770952037098636000,0.310635986328125,-0.05864302068948746,-0.318871408700943,0.040317077189683914
1770952037117606700,0.329606689453125,0.05253437161445618,0.03909534588456154,-0.017104214057326317
1770952037136577500,0.34857763671875,0.04886918142437935,-0.13439024984836578,-0.0256563201546669
1770952037155548200,0.367548095703125,0.017104214057326317,-0.7159335017204285,0.1441640853881836
1770952037174518800,0.386518798828125,-0.046425722539424896,-1.1410953998565674,0.2626718580722809
1770952037193489700,0.40548974609375,-0.05864302068948746,-1.0323615074157715,0.27855435013771057
1770952037212460300,0.424460205078125,-0.05253437161445618,-0.6963858604431152,0.1747073233127594
1770952037231431200,0.44343115234375,0.07819069176912308,-0.2419024556875229,0.15149445831775665
1770952037250401800,0.46240185546875,0.32009315490722656,0.2419024556875229,0.26389357447624207
1770952037269372400,0.481372314453125,0.1588248461484909,0.0256563201546669,0.3298669755458832
1770952037288343300,0.50034326171875,0.21991132199764252,-0.8527672290802002,0.3995055556297302
1770952037307314200,0.519314208984375,0.21258094906806946,-1.6102395057678223,0.38728827238082886
1770952037326284800,0.538284912109375,0.3494146466255188,-1.527161955833435,0.33597561717033386
1770952037345255700,0.557255615234375,0.2528980076313019,-0.758694052696228,0.46547895669937134
1770952037364226300,0.576226318359375,-0.17226386070251465,-0.5632173418998718,0.7562506198883057
1770952037383197200,0.595197265625,-0.08796452730894089,-0.22968515753746033,0.916297197341919
1770952037402167800,0.614167724609375,0.22235478460788727,-0.1233946830034256,0.7525854110717773
1770952037421138700,0.633138671875,0.34086254239082336,-0.4740310609340668,0.7415898442268372
1770952037440109300,0.652109375,0.3127627670764923,-1.4049890041351318,0.7880155444145203
1770952037459080200,0.671080078125,0.28466299176216125,-1.6224569082260132,0.6829468011856079
1770952037478050800,0.69005078125,0.0720820426940918,-1.0091485977172852,0.5106829404830933
1770952037497021700,0.709021728515625,0.010995565913617611,-0.4105011224746704,0.4276053309440613
1770952037515992600,0.72799267578125,0.12950333952903748,-0.3530798554420471,0.25534147024154663
1770952037534963200,0.746963134765625,0.1588248461484909,-0.411722868680954,0.10873392969369888
1770952037553934000,0.76593408203125,0.07086031138896942,-0.36285367608070374,0.06108647957444191
1770952037572905000,0.784905029296875,0.13439024984836578,-0.3799578845500946,-0.006108647678047419
1770952037591875600,0.80387548828125,0.040317077189683914,-0.35796675086021423,-0.017104214057326317
1770952037610846500,0.822846435546875,-0.10629047453403473,-0.020769402384757996,0.021991131827235222
1770952037629817300,0.8418173828125,-0.04886918142437935,0.17592905461788177,-0.07330377399921417
1770952037648788000,0.8607880859375,-0.036651886999607086,-0.010995565913617611,-0.13561198115348816
1770952037667758800,0.8797587890625,-0.03176496922969818,-0.2467893660068512,-0.043982263654470444
1770952037686729700,0.898729736328125,0.009773836471140385,-0.2834412455558777,0.04276053607463837
1770952037705700600,0.91770068359375,-0.012217295356094837,-0.12950333952903748,0.03543015569448471
1770952037724671500,0.93667138671875,-0.04764745384454727,-0.08674279600381851,0.026878049597144127
1770952037743642000,0.95564208984375,0.004886918235570192,-0.09040798991918564,0.01588248461484909
1770952037772098600,0.9840986328125,0.18692462146282196,-0.2883281707763672,-0.06719512492418289
1770952037791069400,1.0030693359375,0.24923282861709595,-0.3066541254520416,-0.2565632164478302
1770952037810040000,1.0220400390625,0.2467893660068512,-0.15760311484336853,-0.3946186602115631
1770952037829011000,1.041010986328125,0.33108872175216675,-0.07086031138896942,-0.2614501118659973
1770952037847981800,1.05998193359375,0.3298669755458832,0.023212861269712448,-0.23945899307727814
1770952037866952700,1.07895263671875,0.5045742988586426,0.16737695038318634,-0.4263836145401001
1770952037885923600,1.097923583984375,0.7428115606307983,0.056199558079242706,-0.6230821013450623
1770952037904894500,1.11689453125,0.8405499458312988,-0.471587598323822,-0.46059203147888184
1770952037923865300,1.135865234375,0.711046576499939,-0.6023126840591431,-0.09651663154363632
1770952037942836200,1.154836181640625,0.4764745235443115,-0.009773836471140385,-0.0818558782339096
1770952037961807000,1.17380712890625,1.0177006721496582,0.7061597108840942,-0.5607738494873047
1770952037980778000,1.192778076171875,1.3158026933670044,1.361006736755371,-1.1972949504852295
1770952037999748900,1.211748779296875,1.2705987691879272,1.1557561159133911,-1.3267983198165894
1770952038018719700,1.2307197265625,0.9859357476234436,1.7336342334747314,-0.8955277800559998
1770952038037690600,1.249690673828125,0.7012727856636047,2.257756233215332,-0.4886918365955353
1770952038056661500,1.26866162109375,0.4740310609340668,1.694538950920105,0.15638138353824615
1770952038075632400,1.28763232421875,1.5784746408462524,0.7990111112594604,-0.09529490768909454
1770952038094603300,1.306603271484375,2.2418737411499023,-0.3017672002315521,0.11728604137897491
1770952038113574100,1.32557421875,2.889390468597412,-1.2999202013015747,1.0238093137741089
1770952038132545000,1.344544921875,3.5002551078796387,-2.4153592586517334,1.431867003440857
1770952038161001500,1.37300146484375,4.0866851806640625,-4.0805768966674805,1.480736255645752
1770952038179972400,1.391972412109375,4.817279815673828,-4.952891826629639,1.8912373781204224
1770952038198943200,1.410943115234375,5.3633928298950195,-4.691441535949707,2.190561056137085
1770952038217914000,1.4299140625,6.250368595123291,-2.6975789070129395,2.528980255126953
1770952038236885000,1.448885009765625,6.935758590698242,-3.2449138164520264,1.4233149290084839
1770952038255855900,1.46785595703125,6.806255340576172,-2.10992693901062,0.6646208763122559
1770952038274827000,1.486826904296875,6.745168685913086,-0.4068359434604645,0.35674503445625305
1770952038293798000,1.5057978515625,6.6205525398254395,1.156977891921997,0.06597339361906052
1770952038312768800,1.524768798828125,6.3749847412109375,2.008523464202881,-0.235793799161911
1770952038331739600,1.54373974609375,1.5198315382003784,2.8954989910125732,0.45937031507492065
1770952038350710500,1.56271044921875,-1.0140355825424194,2.8539602756500244,1.0580178499221802
1770952038369681700,1.581681640625,-0.915075421333313,5.0726213455200195,0.5387827157974243
1770952038388652500,1.600652587890625,-0.8356630206108093,4.426326274871826,-0.1233946830034256
1770952038407623400,1.61962353515625,-0.6963858604431152,2.0439536571502686,-0.4776962697505951
1770952038426594300,1.63859423828125,0.4166097939014435,-0.3017672002315521,-1.156977891921997
1770952038445565400,1.6575654296875,3.247357130050659,-3.6285367012023926,-2.2919647693634033
1770952038464536300,1.676536376953125,4.636463642120361,-3.176496744155884,-2.142913579940796
1770952038483507200,1.695507080078125,5.165472507476807,-0.30054548382759094,-2.436128854751587
1770952038502478300,1.714478271484375,5.2571024894714355,1.071456789970398,-3.4403903484344482
1770952038521449200,1.73344921875,4.629133224487305,0.5986474752426147,-4.091572284698486
1770952038540420000,1.752420166015625,3.3463172912597656,0.998153030872345,-4.224740982055664
1770952038559391200,1.77139111328125,1.1850776672363281,1.3878847360610962,-3.3597562313079834
1770952038578362000,1.790362060546875,0.7538071274757385,-0.03176496922969818,-1.9364413022994995
1770952038597333000,1.8093330078125,1.6236785650253296,-1.0983349084854126,-0.11117739230394363
1770952038616304000,1.82830419921875,2.550971269607544,-0.720820426940918,0.4251618981361389
1770952038635275000,1.84727490234375,2.83319091796875,0.8943060636520386,-0.6096430420875549
1770952038654246100,1.86624609375,2.4483461380004883,1.12765634059906,-1.452636480331421
1770952038673217000,1.885217041015625,2.204000234603882,0.04276053607463837,-0.998153030872345
1770952038692188200,1.904188232421875,2.1551308631896973,-0.2834412455558777,-0.6328558921813965
1770952038711159000,1.923158935546875,1.8997894525527954,-0.4410443603992462,-0.6890554428100586
1770952038730130200,1.942130126953125,1.6297872066497803,-0.8747583627700806,-0.7391464114189148
1770952038749101000,1.96110107421875,1.4489712715148926,-0.9285144805908203,-0.5729911923408508
1770952038768072200,1.980072265625,1.2009601593017578,-0.2761108875274658,-0.554665207862854
1770952038787043000,1.99904296875,1.156977891921997,-0.12950333952903748,-0.45326167345046997
1770952038815499500,2.02749951171875,1.0800089836120605,0.03909534588456154,-0.7024945020675659
1770952038834470700,2.046470703125,-1.7055344581604004,3.8398959636688232,0.9456186890602112
1770952038853441500,2.065441650390625,-0.14782927930355072,-0.6023126840591431,0.03909534588456154
1770952038872412700,2.08441259765625,-0.16859868168830872,-0.3591884970664978,0.3017672002315521
1770952038891383600,2.103383544921875,0.3689623177051544,0.10995566099882126,-0.024434590712189674
1770952038910354700,2.122354736328125,0.48013970255851746,0.9114102721214294,-0.08307760953903198
1770952038929325800,2.141325927734375,-0.1441640853881836,0.277332603931427,-0.8442151546478271
1770952038948296700,2.160296630859375,-0.003665188793092966,-0.036651886999607086,-1.507614254951477
1770952038967267800,2.179267822265625,0.5009090900421143,-0.3078758418560028,-1.0458004474639893
1770952038986238700,2.19823876953125,0.6059778332710266,-0.8991929292678833,-0.8833104968070984
1770952039014695400,2.2266953125,-0.07819069176912308,-0.916297197341919,-1.0213658809661865
1770952039033666300,2.245666259765625,-0.9566142559051514,-0.04886918142437935,-1.0751219987869263
1770952039052637400,2.264637451171875,-1.265711784362793,0.35185810923576355,-0.24312418699264526
1770952039071608300,2.2836083984375,-0.9358448386192322,0.15638138353824615,0.6010909676551819
1770952039090579500,2.302579345703125,0.0769689604640007,-0.287106454372406,1.1985167264938354
1770952039109550600,2.321550537109375,0.4838049113750458,1.2449424266815186,1.2046253681182861
1770952039128521700,2.340521728515625,0.8429933786392212,1.6444480419158936,0.7183769941329956
1770952039147492600,2.35949267578125,0.7330377101898193,1.0250310897827148,0.38728827238082886
1770952039166463700,2.378463623046875,0.5033525824546814,-0.0818558782339096,0.2932150959968567
1770952039185435000,2.397434814453125,0.6316341757774353,-1.1264346837997437,0.1539379209280014
1770952039204405800,2.41640576171875,0.360410213470459,1.1630865335464478,-0.08429934084415436
1770952039223377000,2.435376953125,0.5094612240791321,-1.6322306394577026,-0.5925388336181641
1770952039242348000,2.45434814453125,1.4782928228378296,0.18692462146282196,-0.25411975383758545
1770952039261319200,2.473319091796875,0.03787361457943916,-1.4001020193099976,0.26511532068252563
1770952039280290000,2.4922900390625,0.4056142270565033,-1.2681553363800049,0.3298669755458832
1770952039299261200,2.51126123046875,0.7024945020675659,-0.10506874322891235,0.23945899307727814
1770952039318232300,2.530232421875,0.8210022449493408,-0.3396408259868622,0.3029889166355133
1770952039337203200,2.549203125,0.5375609993934631,-0.6145299673080444,0.37140578031539917
1770952039356174600,2.568174560546875,0.26022839546203613,-0.030543239787220955,0.059864748269319534
1770952039375145500,2.5871455078125,0.04886918142437935,-0.034208428114652634,0.05864302068948746
1770952039394116600,2.60611669921875,-0.04764745384454727,-0.036651886999607086,0.21135921776294708
1770952039413087700,2.625087646484375,-0.05864302068948746,-0.07574722915887833,0.3494146466255188
1770952039432059000,2.644058837890625,-0.050090912729501724,-0.1637117564678192,0.5510000586509705
1770952039451029800,2.66302978515625,-0.06352993845939636,-0.09407317638397217,0.7330377101898193
1770952039470001000,2.6820009765625,-0.12583814561367035,-0.17104214429855347,0.9370665550231934
1770952039488972000,2.700971923828125,-0.22479823231697083,0.009773836471140385,1.1594213247299194
1770952039507943200,2.719943115234375,-0.33108872175216675,0.23212862014770508,1.4758492708206177
1770952039526914300,2.738914306640625,-0.21991132199764252,1.6591087579727173,1.6029092073440552
1770952039545885400,2.757885498046875,0.26511532068252563,-1.1655299663543701,1.5491530895233154
1770952039564856600,2.776856689453125,0.318871408700943,-0.471587598323822,0.2101374864578247
1770952039583827700,2.79582763671875,0.036651886999607086,-0.06352993845939636,0.26022839546203613
1770952039602798800,2.814798828125,0.03543015569448471,-0.08063415437936783,0.11362084746360779
1770952039621769700,2.833769775390625,0.02932151034474373,-0.034208428114652634,0.030543239787220955
1770952039650226400,2.862226318359375,0.0256563201546669,-0.043982263654470444,0.002443459117785096
1770952039669197600,2.881197509765625,0.01954767294228077,-0.03298669680953026,0
1770952039688168700,2.900168701171875,0.020769402384757996,-0.030543239787220955,0.028099779039621353
1770952039707139800,2.919139892578125,0.013439024798572063,-0.01954767294228077,0.026878049597144127
1770952039726111000,2.938111083984375,0.007330377586185932,-0.0256563201546669,0.007330377586185932
1770952039745082000,2.95708203125,0.014660755172371864,-0.03176496922969818,0.017104214057326317
1770952039764053200,2.97605322265625,0.010995565913617611,-0.03909534588456154,0.009773836471140385
1770952039783024400,2.9950244140625,0.013439024798572063,-0.034208428114652634,0.021991131827235222
1770952039801995500,3.01399560546875,0.006108647678047419,-0.034208428114652634,0.009773836471140385
1770952039820966700,3.032966552734375,-0.003665188793092966,-0.04276053607463837,-0.024434590712189674
1770952039839937800,3.051937744140625,-0.006108647678047419,-0.04276053607463837,-0.021991131827235222
1770952039858909000,3.070908935546875,-0.004886918235570192,-0.03298669680953026,-0.013439024798572063
1770952039877880000,3.089880126953125,-0.013439024798572063,-0.03298669680953026,-0.020769402384757996
1770952039896851200,3.108851318359375,-0.01588248461484909,-0.034208428114652634,-0.003665188793092966
1770952039915822300,3.127822265625,-0.012217295356094837,-0.034208428114652634,0.002443459117785096
1770952039934793500,3.14679345703125,-0.012217295356094837,-0.020769402384757996,0.001221729558892548
1770952039953764600,3.1657646484375,-0.007330377586185932,-0.021991131827235222,-0.006108647678047419
1770952039972736000,3.184736083984375,0.004886918235570192,-0.03176496922969818,-0.028099779039621353
1770952039991707100,3.20370703125,-0.002443459117785096,-0.018325943499803543,-0.001221729558892548
1770952040010678300,3.22267822265625,-0.004886918235570192,-0.01954767294228077,0.013439024798572063
1770952040029649400,3.2416494140625,0.003665188793092966,-0.034208428114652634,-0.002443459117785096
1770952040048620500,3.26062060546875,0.001221729558892548,-0.014660755172371864,0.020769402384757996
1770952040067591700,3.279591796875,0.012217295356094837,-0.014660755172371864,0.021991131827235222
1770952040086562800,3.298562744140625,0.03543015569448471,-0.030543239787220955,0.021991131827235222
1770952040105534000,3.317533935546875,0.017104214057326317,-0.001221729558892548,-0.013439024798572063
1770952040124505300,3.33650537109375,0.013439024798572063,-0.007330377586185932,0.006108647678047419
1770952040143476200,3.355476318359375,0.010995565913617611,-0.017104214057326317,0.02932151034474373
1770952040162447600,3.374447509765625,0.004886918235570192,-0.012217295356094837,0.013439024798572063
1770952040181418800,3.393418701171875,0.002443459117785096,-0.003665188793092966,0.01588248461484909
1770952040200390000,3.412389892578125,0.008552107028663158,-0.010995565913617611,0.03909534588456154
1770952040219361000,3.431361083984375,0.002443459117785096,-0.002443459117785096,0.04276053607463837
1770952040238332400,3.45033251953125,0.014660755172371864,-0.009773836471140385,0.050090912729501724
1770952040257303600,3.469303466796875,0.017104214057326317,-0.004886918235570192,0.050090912729501724
1770952040276274700,3.488274658203125,0.0256563201546669,0,0.04520399495959282
1770952040295245800,3.507245849609375,0.024434590712189674,-0.004886918235570192,-0.020769402384757996
1770952040314217000,3.526217041015625,0.020769402384757996,-0.009773836471140385,-0.04764745384454727
1770952040333188400,3.545188232421875,0.01954767294228077,0,-0.010995565913617611
1770952040352159500,3.564159423828125,0.014660755172371864,-0.008552107028663158,-0.008552107028663158
1770952040371130600,3.583130615234375,0.008552107028663158,-0.007330377586185932,-0.018325943499803543
1770952040390101800,3.602101806640625,0.003665188793092966,0.001221729558892548,-0.024434590712189674
1770952040409073200,3.6210732421875,0.002443459117785096,-0.006108647678047419,-0.03543015569448471
1770952040428044300,3.640044189453125,0.002443459117785096,-0.004886918235570192,-0.012217295356094837
1770952040447015400,3.659015380859375,0.009773836471140385,-0.003665188793092966,0.007330377586185932
1770952040465986600,3.677986572265625,-0.003665188793092966,-0.010995565913617611,-0.017104214057326317
1770952040484958000,3.6969580078125,-0.006108647678047419,-0.013439024798572063,-0.017104214057326317
1770952040503929000,3.71592919921875,-0.001221729558892548,-0.020769402384757996,-0.021991131827235222
1770952040522900200,3.734900146484375,-0.001221729558892548,-0.024434590712189674,-0.04276053607463837
1770952040541871400,3.753871337890625,0.009773836471140385,-0.002443459117785096,0.021991131827235222
1770952040560842800,3.7728427734375,0.007330377586185932,0.002443459117785096,0.010995565913617611
1770952040579814000,3.79181396484375,0.01954767294228077,-0.003665188793092966,0.046425722539424896
1770952040598785000,3.810784912109375,0.01588248461484909,0.007330377586185932,0.03176496922969818
1770952040617756400,3.82975634765625,0.014660755172371864,0.017104214057326317,0.018325943499803543
1770952040636727600,3.8487275390625,0.017104214057326317,0.004886918235570192,0.026878049597144127
1770952040655698700,3.86769873046875,0.021991131827235222,0.009773836471140385,0.03176496922969818
1770952040674670000,3.886670166015625,0.021991131827235222,0.020769402384757996,0.01954767294228077
1770952040693641200,3.90564111328125,0.018325943499803543,0.006108647678047419,0.004886918235570192
1770952040712612400,3.9246123046875,0.008552107028663158,-0.006108647678047419,-0.007330377586185932
1770952040731583700,3.943583740234375,0,-0.007330377586185932,0.010995565913617611
1770952040750555000,3.962554931640625,-0.006108647678047419,0.007330377586185932,0.03909534588456154
1770952040769526300,3.9815263671875,-0.013439024798572063,-0.002443459117785096,0.008552107028663158
1770952040788497400,4.000497314453125,-0.002443459117785096,-0.013439024798572063,0.030543239787220955
1770952040807468500,4.019468505859375,-0.01588248461484909,-0.004886918235570192,-0.021991131827235222
1770952040826440000,4.03843994140625,0.002443459117785096,-0.001221729558892548,0.04520399495959282
1770952040845411000,4.0574111328125,-0.012217295356094837,0.001221729558892548,0.030543239787220955
1770952040864382200,4.07638232421875,-0.006108647678047419,0.002443459117785096,0.036651886999607086
1770952040883353600,4.095353515625,-0.007330377586185932,-0.002443459117785096,0.02932151034474373
1770952040902324700,4.11432470703125,-0.008552107028663158,-0.002443459117785096,0.008552107028663158
1770952040921296100,4.133296142578125,-0.009773836471140385,-0.004886918235570192,0.001221729558892548
1770952040940267300,4.152267333984375,-0.010995565913617611,-0.001221729558892548,0
1770952040959238700,4.17123876953125,-0.009773836471140385,-0.007330377586185932,-0.012217295356094837
1770952040978209800,4.190209716796875,-0.014660755172371864,-0.009773836471140385,-0.03298669680953026
1770952040997181200,4.20918115234375,-0.018325943499803543,-0.010995565913617611,-0.03543015569448471
1770952041016152300,4.22815234375,-0.024434590712189674,-0.004886918235570192,-0.012217295356094837
1770952041035123700,4.247123779296875,-0.028099779039621353,-0.006108647678047419,-0.014660755172371864
1770952041054094800,4.2660947265625,-0.0256563201546669,-0.004886918235570192,0.004886918235570192
1770952041073066000,4.28506591796875,-0.034208428114652634,-0.006108647678047419,0.01588248461484909
1770952041092037400,4.304037353515625,-0.03176496922969818,-0.020769402384757996,0.006108647678047419
1770952041111008500,4.323008544921875,-0.023212861269712448,-0.012217295356094837,0.021991131827235222
1770952041129980000,4.34197998046875,-0.021991131827235222,-0.007330377586185932,-0.013439024798572063
1770952041148951000,4.360950927734375,-0.014660755172371864,-0.017104214057326317,-0.034208428114652634
1770952041167922200,4.379922119140625,-0.010995565913617611,-0.007330377586185932,-0.04153880476951599
1770952041186893600,4.3988935546875,-0.009773836471140385,0.003665188793092966,-0.04153880476951599
1770952041205865000,4.417864990234375,0.010995565913617611,0.007330377586185932,-0.03543015569448471
1770952041224836000,4.436836181640625,0.01588248461484909,0.014660755172371864,-0.043982263654470444
1770952041243807500,4.455807373046875,0.034208428114652634,-0.001221729558892548,-0.01954767294228077
1770952041262778600,4.474778564453125,0.04153880476951599,0.018325943499803543,0.05253437161445618
1770952041281750000,4.49375,0.053756099194288254,0.012217295356094837,0.04886918142437935
1770952041300721200,4.51272119140625,0.056199558079242706,0.03909534588456154,0.046425722539424896
1770952041329178000,4.54117822265625,0.05864302068948746,0.017104214057326317,0.020769402384757996
1770952041348149200,4.560149169921875,0.06475166976451874,0.024434590712189674,0.013439024798572063
1770952041367120600,4.57912060546875,0.05864302068948746,0.018325943499803543,0.012217295356094837
1770952041386092000,4.598092041015625,0.059864748269319534,0.012217295356094837,0.004886918235570192
1770952041405063200,4.617063232421875,0.0513126403093338,0.024434590712189674,-0.008552107028663158
1770952041424034300,4.636034423828125,0.05253437161445618,0.008552107028663158,-0.03298669680953026
1770952041443005700,4.655005615234375,0.05742128938436508,0.017104214057326317,-0.004886918235570192
1770952041461977000,4.67397705078125,0.043982263654470444,0.03298669680953026,-0.002443459117785096
1770952041480948200,4.6929482421875,0.040317077189683914,0.024434590712189674,-0.004886918235570192
1770952041499919600,4.711919677734375,0.04153880476951599,0.024434590712189674,0.01588248461484909
1770952041518890800,4.730890869140625,0.050090912729501724,0.006108647678047419,0.013439024798572063
1770952041537862100,4.749862060546875,0.02932151034474373,0.009773836471140385,0.007330377586185932
1770952041575804700,4.7878046875,-0.001221729558892548,-0.010995565913617611,-0.03909534588456154
1770952041594775800,4.80677587890625,-0.014660755172371864,-0.003665188793092966,-0.03909534588456154
1770952041613747200,4.825747314453125,-0.01954767294228077,0,-0.043982263654470444
1770952041632718600,4.844718505859375,-0.01954767294228077,-0.008552107028663158,-0.043982263654470444
1770952041651689700,4.863689697265625,-0.024434590712189674,-0.006108647678047419,-0.020769402384757996
1770952041670661000,4.8826611328125,-0.03787361457943916,-0.006108647678047419,0.028099779039621353
1770952041689632300,4.90163232421875,-0.028099779039621353,-0.002443459117785096,0.05864302068948746
1770952041708603600,4.920603759765625,-0.04764745384454727,-0.030543239787220955,0.04764745384454727
1770952041737060600,4.949060546875,-0.043982263654470444,-0.01954767294228077,0.04276053607463837
1770952041756031700,4.96803173828125,-0.04276053607463837,-0.040317077189683914,0.03909534588456154
1770952041784488700,4.99648876953125,-0.050090912729501724,-0.02932151034474373,0.003665188793092966
1770952041803460000,5.015460205078125,-0.05253437161445618,-0.010995565913617611,0.009773836471140385
1770952041822431200,5.03443115234375,-0.03787361457943916,-0.018325943499803543,-0.009773836471140385
1770952041841402600,5.053402587890625,-0.028099779039621353,-0.021991131827235222,-0.0256563201546669
1770952041860374000,5.0723740234375,-0.028099779039621353,0,0.008552107028663158
1770952041879345200,5.09134521484375,-0.026878049597144127,0.009773836471140385,0.009773836471140385
1770952041898316500,5.110316650390625,-0.002443459117785096,0.001221729558892548,0.018325943499803543
1770952041917287700,5.12928759765625,0.009773836471140385,0.007330377586185932,0.03176496922969818
1770952041936259000,5.148259033203125,0.008552107028663158,0.004886918235570192,0.026878049597144127
1770952041955230500,5.16723046875,0.013439024798572063,-0.003665188793092966,0.012217295356094837
1770952041974201600,5.18620166015625,0.003665188793092966,0.004886918235570192,-0.013439024798572063
1770952041993173000,5.205173095703125,0.01588248461484909,0.009773836471140385,0.002443459117785096
1770952042021630000,5.2336298828125,0.0256563201546669,-0.014660755172371864,-0.01954767294228077
1770952042040601000,5.25260107421875,0.008552107028663158,-0.002443459117785096,-0.03298669680953026
1770952042059572500,5.271572509765625,-0.014660755172371864,-0.001221729558892548,-0.03787361457943916
1770952042078544000,5.2905439453125,-0.008552107028663158,-0.006108647678047419,0.01588248461484909
1770952042097515000,5.309514892578125,-0.01588248461484909,-0.008552107028663158,0.05864302068948746
1770952042125972000,5.337971923828125,-0.012217295356094837,-0.030543239787220955,0.04886918142437935
1770952042144943400,5.356943359375,-0.02932151034474373,-0.01954767294228077,0.0720820426940918
1770952042163914800,5.375914794921875,-0.02932151034474373,-0.014660755172371864,0.01588248461484909
1770952042182886000,5.394885986328125,-0.020769402384757996,-0.004886918235570192,-0.01954767294228077
1770952042201857300,5.413857177734375,-0.010995565913617611,-0.007330377586185932,-0.003665188793092966
1770952042220828400,5.432828369140625,-0.009773836471140385,0.018325943499803543,0.017104214057326317
1770952042239799800,5.4517998046875,-0.008552107028663158,0.009773836471140385,0.006108647678047419
1770952042258771200,5.470771240234375,-0.012217295356094837,0.007330377586185932,0.013439024798572063
1770952042277742300,5.489742431640625,0.014660755172371864,0.014660755172371864,0.06597339361906052
1770952042296713700,5.508713623046875,0.018325943499803543,0.017104214057326317,0.034208428114652634
1770952042315685000,5.52768505859375,0.024434590712189674,0.003665188793092966,0.010995565913617611
1770952042334656300,5.54665625,0.026878049597144127,0.007330377586185932,0.021991131827235222
1770952042353627600,5.565627685546875,0.028099779039621353,0.008552107028663158,0.034208428114652634
1770952042372599000,5.58459912109375,0.04520399495959282,0.004886918235570192,0.030543239787220955
1770952042391570200,5.603570068359375,0.03909534588456154,0.006108647678047419,0.01588248461484909
1770952042410541600,5.62254150390625,0.056199558079242706,0.018325943499803543,0.04520399495959282
1770952042429513000,5.641512939453125,0.043982263654470444,0.0256563201546669,0.024434590712189674
1770952042448484000,5.660484130859375,0.05864302068948746,0.021991131827235222,0.06475166976451874
1770952042476941000,5.688941162109375,0.056199558079242706,0.01954767294228077,0.03298669680953026
1770952042495912400,5.707912353515625,0.0513126403093338,0.034208428114652634,0.024434590712189674
1770952042514883800,5.7268837890625,0.04886918142437935,0.020769402384757996,0.001221729558892548
1770952042533855000,5.74585498046875,0.0513126403093338,0.008552107028663158,0.010995565913617611
1770952042552826400,5.764826416015625,0.03787361457943916,0.018325943499803543,-0.034208428114652634
1770952042571797800,5.7837978515625,0.03787361457943916,0.020769402384757996,-0.0513126403093338
1770952042590769000,5.802768798828125,0.043982263654470444,0.003665188793092966,-0.05742128938436508
1770952042609740300,5.821740234375,0.036651886999607086,0.002443459117785096,-0.024434590712189674
1770952042628711700,5.840711669921875,0.023212861269712448,-0.002443459117785096,-0.007330377586185932
1770952042647683000,5.85968310546875,0.002443459117785096,0.010995565913617611,0.003665188793092966
1770952042666654200,5.878654296875,-0.001221729558892548,0,0.02932151034474373
1770952042685625600,5.89762548828125,-0.013439024798572063,-0.010995565913617611,0.043982263654470444
1770952042704597000,5.916596923828125,-0.036651886999607086,-0.026878049597144127,0.028099779039621353
1770952042723568400,5.935568359375,-0.05742128938436508,-0.028099779039621353,0.002443459117785096
1770952042742539500,5.95453955078125,-0.05864302068948746,-0.02932151034474373,0.007330377586185932
1770952042761511000,5.973510986328125,-0.05742128938436508,-0.03787361457943916,0.009773836471140385
1770952042780482300,5.992482421875,-0.06475166976451874,-0.026878049597144127,0.01954767294228077
1770952042799453400,6.011453369140625,-0.06475166976451874,-0.024434590712189674,0.01588248461484909
1770952042818424800,6.0304248046875,-0.05497783049941063,-0.014660755172371864,0.036651886999607086
1770952042837396200,6.049396240234375,-0.06597339361906052,-0.02932151034474373,0.034208428114652634
1770952042856367600,6.06836767578125,-0.06475166976451874,-0.020769402384757996,0.03787361457943916
1770952042875339000,6.087339111328125,-0.06475166976451874,-0.023212861269712448,0.021991131827235222
1770952042894310100,6.10631005859375,-0.05253437161445618,-0.018325943499803543,0.013439024798572063
1770952042913281500,6.125281494140625,-0.06352993845939636,-0.01954767294228077,-0.012217295356094837
1770952042932253000,6.1442529296875,-0.046425722539424896,-0.026878049597144127,0.004886918235570192
1770952042951224000,6.16322412109375,-0.030543239787220955,-0.01588248461484909,0
1770952042970195500,6.182195556640625,-0.03298669680953026,-0.001221729558892548,-0.03543015569448471
1770952042989166800,6.201166748046875,-0.021991131827235222,-0.007330377586185932,-0.013439024798572063
1770952043008138200,6.22013818359375,-0.0256563201546669,-0.012217295356094837,-0.030543239787220955
1770952043027109600,6.239109619140625,-0.006108647678047419,-0.009773836471140385,0.01588248461484909
1770952043046080800,6.258080810546875,0,0.004886918235570192,-0.010995565913617611
1770952043065052200,6.27705224609375,0.01588248461484909,0.009773836471140385,-0.01954767294228077
1770952043084023600,6.2960234375,0.034208428114652634,-0.006108647678047419,-0.03176496922969818
1770952043102995000,6.314994873046875,0.043982263654470444,0.008552107028663158,-0.03787361457943916
1770952043131452000,6.343451904296875,0.053756099194288254,0.020769402384757996,-0.04276053607463837
1770952043150423300,6.36242333984375,0.05742128938436508,0.008552107028663158,-0.02932151034474373
1770952043169394700,6.381394775390625,0.046425722539424896,0.004886918235570192,-0.014660755172371864
1770952043188365800,6.40036572265625,0.04153880476951599,0.0256563201546669,-0.03298669680953026
1770952043207337200,6.419337158203125,0.046425722539424896,0.004886918235570192,-0.021991131827235222
1770952043226308600,6.43830859375,0.05497783049941063,-0.004886918235570192,0.02932151034474373
1770952043245280000,6.457280029296875,0.03298669680953026,0.013439024798572063,0.013439024798572063
1770952043264251400,6.47625146484375,0.023212861269712448,0.003665188793092966,-0.001221729558892548
1770952043283222500,6.495222412109375,0.0256563201546669,0.001221729558892548,0.013439024798572063
1770952043302194000,6.51419384765625,0.020769402384757996,0.003665188793092966,-0.008552107028663158
1770952043321165300,6.533165283203125,0.024434590712189674,-0.008552107028663158,0.014660755172371864
1770952043340136700,6.55213671875,0.01588248461484909,-0.006108647678047419,0.017104214057326317
1770952043359108000,6.571108154296875,-0.002443459117785096,0.007330377586185932,-0.014660755172371864
1770952043378079500,6.59007958984375,0.018325943499803543,-0.004886918235570192,0.002443459117785096
1770952043397050600,6.609050537109375,0.014660755172371864,-0.01588248461484909,0.01954767294228077
1770952043416022000,6.62802197265625,0.006108647678047419,0.006108647678047419,0.012217295356094837
1770952043434993400,6.646993408203125,0.012217295356094837,0.001221729558892548,-0.013439024798572063
1770952043453964800,6.66596484375,0.01954767294228077,-0.003665188793092966,0.003665188793092966
1770952043472936200,6.684936279296875,0.013439024798572063,-0.010995565913617611,-0.03543015569448471
1770952043491907600,6.703907470703125,0.026878049597144127,-0.01954767294228077,-0.014660755172371864
1770952043510878700,6.722878662109375,0.021991131827235222,0.001221729558892548,-0.030543239787220955
1770952043529850000,6.74185009765625,0.012217295356094837,0.01954767294228077,-0.021991131827235222
1770952043548821500,6.760821533203125,0.018325943499803543,0.014660755172371864,0.028099779039621353
1770952043567793000,6.77979296875,0.007330377586185932,-0.013439024798572063,0.03543015569448471
1770952043586764300,6.798764404296875,0.008552107028663158,-0.009773836471140385,0.04153880476951599
1770952043605735700,6.817735595703125,-0.009773836471140385,-0.013439024798572063,0.03787361457943916
1770952043624707000,6.83670703125,-0.018325943499803543,-0.014660755172371864,0.02932151034474373
1770952043643678500,6.855678466796875,-0.020769402384757996,-0.02932151034474373,0.028099779039621353
1770952043662649900,6.87464990234375,-0.017104214057326317,-0.024434590712189674,0.03543015569448471
1770952043681621200,6.893621337890625,-0.030543239787220955,-0.017104214057326317,0.018325943499803543
1770952043700592400,6.91259228515625,-0.043982263654470444,-0.017104214057326317,0.020769402384757996
1770952043719563800,6.931563720703125,-0.03298669680953026,-0.017104214057326317,0.002443459117785096
1770952043738535200,6.95053515625,-0.01954767294228077,-0.01954767294228077,0.05253437161445618
1770952043757506600,6.969506591796875,-0.0256563201546669,-0.010995565913617611,0.02932151034474373
1770952043776478000,6.98847802734375,-0.03176496922969818,-0.008552107028663158,0.01954767294228077
1770952043795449300,7.007449462890625,-0.03298669680953026,-0.006108647678047419,-0.002443459117785096
1770952043814420700,7.026420654296875,-0.036651886999607086,-0.01954767294228077,-0.036651886999607086
1770952043833392000,7.04539208984375,-0.01588248461484909,-0.034208428114652634,0.040317077189683914
1770952043852363500,7.064363525390625,-0.043982263654470444,-0.01954767294228077,-0.043982263654470444
1770952043871335000,7.0833349609375,-0.05497783049941063,-0.03909534588456154,-0.07941242307424545
1770952043890306300,7.102306396484375,-0.0513126403093338,-0.030543239787220955,-0.07574722915887833
1770952043909277700,7.121277587890625,-0.04764745384454727,-0.014660755172371864,-0.03909534588456154
1770952043928248800,7.140248779296875,-0.034208428114652634,-0.03298669680953026,0.002443459117785096
1770952043947220500,7.159220458984375,-0.01588248461484909,-0.01588248461484909,0.04276053607463837
1770952043966191600,7.178191650390625,-0.01588248461484909,0.012217295356094837,-0.01588248461484909
1770952043985163000,7.1971630859375,0.008552107028663158,-0.028099779039621353,0.008552107028663158
1770952044004134400,7.216134521484375,0.020769402384757996,-0.020769402384757996,0.028099779039621353
1770952044023105800,7.235105712890625,0.03909534588456154,0,0.021991131827235222
1770952044042077200,7.2540771484375,0.0513126403093338,0.013439024798572063,0.040317077189683914
1770952044061048600,7.273048583984375,0.056199558079242706,0.014660755172371864,0.014660755172371864
1770952044080020000,7.29202001953125,0.05497783049941063,0.0256563201546669,0.021991131827235222
1770952044098991400,7.310991455078125,0.0720820426940918,0.021991131827235222,0.028099779039621353
1770952044127448600,7.339448486328125,0.06841685622930527,0.028099779039621353,0.03298669680953026
1770952044146420000,7.358419921875,0.0769689604640007,0.024434590712189674,0.06597339361906052
1770952044174877000,7.386876953125,0.05742128938436508,0.0256563201546669,0.03543015569448471
1770952044193848300,7.405848388671875,0.06597339361906052,0.018325943499803543,0.014660755172371864
1770952044212819700,7.42481982421875,0.06963858753442764,0.014660755172371864,0.009773836471140385
1770952044231791000,7.443791015625,0.056199558079242706,0.008552107028663158,0.001221729558892548
1770952044250762500,7.462762451171875,0.06108647957444191,0.028099779039621353,0.003665188793092966
1770952044269734000,7.48173388671875,0.05253437161445618,0.017104214057326317,-0.03176496922969818
1770952044288705300,7.500705322265625,0.0513126403093338,0.007330377586185932,-0.024434590712189674
1770952044307676700,7.5196767578125,0.028099779039621353,0.014660755172371864,-0.018325943499803543
1770952044326648000,7.53864794921875,0.01954767294228077,0.001221729558892548,-0.03176496922969818
1770952044345619500,7.557619384765625,0.004886918235570192,-0.01588248461484909,-0.007330377586185932
1770952044364590800,7.5765908203125,-0.003665188793092966,-0.013439024798572063,0.004886918235570192
1770952044383562200,7.595562255859375,-0.012217295356094837,-0.009773836471140385,-0.004886918235570192
1770952044402533600,7.61453369140625,-0.017104214057326317,-0.021991131827235222,-0.008552107028663158
1770952044421505000,7.633505126953125,-0.023212861269712448,-0.03298669680953026,0.007330377586185932
1770952044440476400,7.652476318359375,-0.03543015569448471,-0.03909534588456154,0.017104214057326317
1770952044459447800,7.67144775390625,-0.04153880476951599,-0.04153880476951599,0.04520399495959282
1770952044478419200,7.690419189453125,-0.05253437161445618,-0.03543015569448471,0.023212861269712448
1770952044506876400,7.71887646484375,-0.050090912729501724,-0.04153880476951599,0.056199558079242706
1770952044525847800,7.737847900390625,-0.07086031138896942,-0.028099779039621353,0.017104214057326317
1770952044544819200,7.756819091796875,-0.06597339361906052,-0.03543015569448471,0.03543015569448471
1770952044563790600,7.77579052734375,-0.06108647957444191,-0.03543015569448471,0.02932151034474373
1770952044582762000,7.794761962890625,-0.06352993845939636,-0.040317077189683914,0.04153880476951599
1770952044601733400,7.8137333984375,-0.06597339361906052,-0.036651886999607086,0.026878049597144127
1770952044620704800,7.832704833984375,-0.06352993845939636,-0.02932151034474373,0.014660755172371864
1770952044649162000,7.861161865234375,-0.04764745384454727,-0.02932151034474373,0.04886918142437935
1770952044668133400,7.88013330078125,-0.046425722539424896,-0.03298669680953026,0.028099779039621353
1770952044687104800,7.899104736328125,-0.03909534588456154,-0.024434590712189674,0.006108647678047419
1770952044706076200,7.918076171875,-0.028099779039621353,-0.03176496922969818,-0.012217295356094837
1770952044725047600,7.937047607421875,-0.008552107028663158,-0.03787361457943916,-0.020769402384757996
1770952044744019000,7.95601904296875,0.002443459117785096,-0.023212861269712448,0.013439024798572063
1770952044762990300,7.974990234375,0.007330377586185932,-0.024434590712189674,0.020769402384757996
1770952044781961700,7.993961669921875,0.014660755172371864,-0.013439024798572063,0.028099779039621353
1770952044800933000,8.01293310546875,0.013439024798572063,-0.013439024798572063,0.023212861269712448
1770952044819904500,8.031904541015624,0.024434590712189674,-0.017104214057326317,0.036651886999607086
1770952044838876000,8.0508759765625,0.020769402384757996,-0.006108647678047419,0.023212861269712448
1770952044857847300,8.069847412109375,0.040317077189683914,-0.018325943499803543,0.036651886999607086
1770952044876818700,8.088818603515625,0.05497783049941063,-0.01588248461484909,0.06597339361906052
1770952044895790000,8.1077900390625,0.04276053607463837,-0.002443459117785096,0.040317077189683914
1770952044914761500,8.126761474609374,0.053756099194288254,-0.013439024798572063,0.050090912729501724
1770952044933732900,8.14573291015625,0.04764745384454727,-0.017104214057326317,0.020769402384757996
1770952044962190000,8.174190185546875,0.04764745384454727,-0.012217295356094837,-0.008552107028663158
1770952044981161500,8.193161376953125,0.05253437161445618,-0.010995565913617611,0.001221729558892548
1770952045000132900,8.2121328125,0.053756099194288254,-0.021991131827235222,-0.020769402384757996
1770952045019104300,8.231104248046876,0.05864302068948746,-0.01954767294228077,-0.012217295356094837
1770952045038075600,8.25007568359375,0.06108647957444191,-0.01954767294228077,-0.020769402384757996
1770952045057047000,8.269047119140625,0.059864748269319534,-0.0256563201546669,-0.021991131827235222
1770952045076018400,8.288018310546875,0.053756099194288254,-0.028099779039621353,-0.023212861269712448
1770952045094989800,8.30698974609375,0.059864748269319534,-0.026878049597144127,0.002443459117785096
1770952045113961500,8.32596142578125,0.06108647957444191,-0.034208428114652634,-0.008552107028663158
1770952045132932600,8.3449326171875,0.06963858753442764,-0.04520399495959282,0.010995565913617611
1770952045151904300,8.363904296875,0.0513126403093338,-0.03909534588456154,0.012217295356094837
1770952045170875400,8.38287548828125,0.04520399495959282,-0.043982263654470444,-0.004886918235570192
1770952045189847000,8.401846923828124,0.0513126403093338,-0.05742128938436508,-0.008552107028663158
1770952045208818400,8.420818359375,0.04520399495959282,-0.056199558079242706,-0.003665188793092966
1770952045237275400,8.449275390625,0.03787361457943916,-0.06597339361906052,-0.004886918235570192
1770952045256246800,8.468246826171875,0.03787361457943916,-0.06719512492418289,0.014660755172371864
1770952045275218200,8.48721826171875,0.040317077189683914,-0.06963858753442764,0.04764745384454727
1770952045294189600,8.506189453125,0.02932151034474373,-0.08429934084415436,0.024434590712189674
1770952045313161000,8.525160888671875,0.030543239787220955,-0.0818558782339096,0.04153880476951599
1770952045332132600,8.544132568359375,0.03176496922969818,-0.08918625861406326,0.043982263654470444
1770952045351104000,8.56310400390625,0.036651886999607086,-0.09529490768909454,0.046425722539424896
1770952045370075400,8.582075439453124,0.034208428114652634,-0.09529490768909454,0.023212861269712448
1770952045389046800,8.601046875,0.028099779039621353,-0.08918625861406326,-0.004886918235570192
1770952045408018200,8.62001806640625,0.03298669680953026,-0.10018182545900345,0.002443459117785096
1770952045426989600,8.638989501953125,0.036651886999607086,-0.10384701192378998,-0.012217295356094837
1770952045445961000,8.6579609375,0.02932151034474373,-0.10140355676412582,-0.01588248461484909
1770952045464932400,8.676932373046874,0.034208428114652634,-0.10995566099882126,-0.014660755172371864
1770952045483903700,8.69590380859375,0.03298669680953026,-0.11484257876873016,-0.003665188793092966
1770952045502875100,8.714875244140625,0.040317077189683914,-0.1282816082239151,0.01588248461484909
1770952045521846500,8.733846435546875,0.04886918142437935,-0.11972949653863907,0.023212861269712448
1770952045540818000,8.75281787109375,0.05864302068948746,-0.12461641430854797,0.043982263654470444
1770952045559789300,8.771789306640626,0.053756099194288254,-0.1380554437637329,0.03298669680953026
1770952045578760700,8.7907607421875,0.034208428114652634,-0.14049890637397766,0.018325943499803543
1770952045597732000,8.809732177734375,0.0256563201546669,-0.1441640853881836,0.024434590712189674
1770952045616703500,8.828703369140625,0.028099779039621353,-0.15638138353824615,0.04276053607463837
1770952045635675000,8.8476748046875,0.030543239787220955,-0.18814635276794434,0.008552107028663158
1770952045654646300,8.866646240234376,0.028099779039621353,-0.17348559200763702,-0.006108647678047419
1770952045673618000,8.885617919921875,0.018325943499803543,-0.1637117564678192,0.002443459117785096
1770952045692589000,8.904589111328125,0.02932151034474373,-0.17592905461788177,0.020769402384757996
1770952045711560700,8.923560791015625,0.028099779039621353,-0.16249002516269684,0.003665188793092966
1770952045730532000,8.942531982421874,0.04153880476951599,-0.15638138353824615,0.017104214057326317
1770952045749503500,8.96150341796875,0.06352993845939636,-0.16737695038318634,0.017104214057326317
1770952045768475000,8.980474853515625,0.07086031138896942,-0.1637117564678192,0.008552107028663158
1770952045787446300,8.9994462890625,0.07574722915887833,-0.1649334877729416,0.009773836471140385
1770952045806417700,9.018417724609375,0.08796452730894089,-0.17837251722812653,0.017104214057326317
1770952045825389000,9.03738916015625,0.08429934084415436,-0.1795942485332489,0.017104214057326317
1770952045853846000,9.065845947265625,0.07574722915887833,-0.1905898153781891,-0.018325943499803543
1770952045872817400,9.0848173828125,0.06841685622930527,-0.18570289015769958,-0.0256563201546669
1770952045891788800,9.103788818359375,0.08063415437936783,-0.19669845700263977,-0.017104214057326317
1770952045910760200,9.12276025390625,0.08552107214927673,-0.1905898153781891,0.003665188793092966
1770952045929731600,9.141731689453126,0.08674279600381851,-0.19669845700263977,0.04764745384454727
1770952045948703000,9.160702880859375,0.08918625861406326,-0.21258094906806946,0.06475166976451874
1770952045977160200,9.18916015625,0.07086031138896942,-0.2211330533027649,0.021991131827235222
1770952045996131600,9.208131591796874,0.07819069176912308,-0.22479823231697083,0.036651886999607086
1770952046015103000,9.22710302734375,0.07819069176912308,-0.21868959069252014,0.028099779039621353
1770952046034074400,9.246074462890626,0.07819069176912308,-0.22968515753746033,0.04153880476951599
1770952046053045800,9.265045654296875,0.08307760953903198,-0.23945899307727814,0.04153880476951599
1770952046072017200,9.28401708984375,0.07941242307424545,-0.24801109731197357,0.028099779039621353
1770952046100474400,9.312474365234374,0.08918625861406326,-0.24923282861709595,0.028099779039621353
1770952046119445500,9.331445556640626,0.09285144507884979,-0.23945899307727814,0.05864302068948746
1770952046138417000,9.3504169921875,0.09651663154363632,-0.2419024556875229,0.05497783049941063
1770952046166874000,9.3788740234375,0.0977383628487587,-0.24556763470172882,0.04276053607463837
1770952046195331000,9.4073310546875,0.09285144507884979,-0.23945899307727814,0.017104214057326317
1770952046214302700,9.426302734375,0.09651663154363632,-0.2467893660068512,0.008552107028663158
1770952046233273900,9.44527392578125,0.09651663154363632,-0.2565632164478302,0.004886918235570192
1770952046252245200,9.464245361328125,0.08307760953903198,-0.24801109731197357,0.002443459117785096
1770952046271216600,9.483216552734374,0.07452550530433655,-0.2577849328517914,-0.02932151034474373
1770952046290188000,9.50218798828125,0.08429934084415436,-0.26878049969673157,0.006108647678047419
1770952046309159400,9.521159423828125,0.0818558782339096,-0.2663370370864868,0.020769402384757996
1770952046328130800,9.540130859375,0.08063415437936783,-0.2712239623069763,0.018325943499803543
1770952046356588000,9.568588134765625,0.07086031138896942,-0.277332603931427,-0.010995565913617611
1770952046375559400,9.587559326171874,0.07819069176912308,-0.2663370370864868,0.004886918235570192
1770952046394530800,9.60653076171875,0.08063415437936783,-0.26389357447624207,0.017104214057326317
1770952046413502200,9.625502197265625,0.09040798991918564,-0.2834412455558777,0.03909534588456154
1770952046432473600,9.6444736328125,0.08796452730894089,-0.2919933497905731,0.04764745384454727
1770952046451445000,9.663445068359374,0.0818558782339096,-0.2883281707763672,0.03543015569448471
1770952046470416100,9.682416015625,0.0818558782339096,-0.2822195291519165,0.014660755172371864
1770952046489387500,9.701387451171875,0.08796452730894089,-0.29443681240081787,0.021991131827235222
1770952046508359000,9.72035888671875,0.09285144507884979,-0.2968802750110626,0.012217295356094837
1770952046527330300,9.739330322265625,0.10018182545900345,-0.2932150959968567,0.024434590712189674
1770952046555787500,9.76778759765625,0.10751219838857651,-0.29443681240081787,0.08063415437936783
1770952046574758700,9.786758544921875,0.11606431007385254,-0.3029889166355133,0.0769689604640007
1770952046593730000,9.80572998046875,0.1282816082239151,-0.31642794609069824,0.07574722915887833
1770952046612701400,9.824701416015625,0.12461641430854797,-0.3176496922969818,0.06475166976451874
1770952046631672800,9.8436728515625,0.12217295914888382,-0.3127627670764923,0.06108647957444191
1770952046650644200,9.862644287109376,0.10995566099882126,-0.328645259141922,-0.021991131827235222
1770952046669615600,9.88161572265625,0.1185077652335167,-0.34086254239082336,-0.028099779039621353
1770952046688587000,9.9005869140625,0.11728604137897491,-0.3396408259868622,-0.06475166976451874
1770952046707558400,9.919558349609375,0.11117739230394363,-0.3347539007663727,-0.08429934084415436
1770952046726529800,9.93852978515625,0.11606431007385254,-0.36163195967674255,-0.08918625861406326
1770952046745501200,9.957501220703126,0.10506874322891235,-0.370184063911438,-0.07574722915887833
1770952046764472300,9.976472412109375,0.09162971377372742,-0.3738492429256439,-0.08307760953903198
1770952046783443700,9.995443603515625,0.0818558782339096,-0.3738492429256439,-0.08063415437936783
1770952046802415000,10.0144150390625,0.07574722915887833,-0.3848448097705841,-0.07452550530433655
1770952046821386500,10.033386474609374,0.06719512492418289,-0.38728827238082886,-0.03909534588456154
1770952046840358000,10.05235791015625,0.06597339361906052,-0.4068359434604645,-0.018325943499803543
1770952046859329300,10.071329345703125,0.06841685622930527,-0.4202749729156494,-0.013439024798572063
1770952046878300700,10.09030078125,0.056199558079242706,-0.40927940607070923,0
1770952046897271800,10.109271728515624,0.05497783049941063,-0.4105011224746704,0.009773836471140385
1770952046916243200,10.1282431640625,0.056199558079242706,-0.4251618981361389,0.04276053607463837
1770952046935214600,10.147214599609375,0.05253437161445618,-0.4324922561645508,0.046425722539424896
1770952046954186000,10.16618603515625,0.053756099194288254,-0.41905322670936584,0.0769689604640007
1770952046973157400,10.185157470703125,0.053756099194288254,-0.4202749729156494,0.07941242307424545
1770952046992128800,10.204128662109374,0.06597339361906052,-0.43371400237083435,0.09162971377372742
1770952047011100200,10.22310009765625,0.07452550530433655,-0.4324922561645508,0.10140355676412582
1770952047030071300,10.2420712890625,0.0769689604640007,-0.4312705397605896,0.09896009415388107
1770952047049042700,10.261042724609375,0.07086031138896942,-0.42882707715034485,0.08552107214927673
1770952047068014000,10.28001416015625,0.07574722915887833,-0.42271843552589417,0.10873392969369888
1770952047086985500,10.2989853515625,0.08307760953903198,-0.42394015192985535,0.07941242307424545
1770952047105956600,10.31795654296875,0.09040798991918564,-0.4312705397605896,0.0720820426940918
1770952047124928000,10.336927978515625,0.0977383628487587,-0.4263836145401001,0.08552107214927673
1770952047143899400,10.3558994140625,0.10629047453403473,-0.42271843552589417,0.0513126403093338
1770952047162870800,10.374870849609374,0.12950333952903748,-0.43493571877479553,0.0720820426940918
1770952047181842000,10.393842041015626,0.13439024984836578,-0.43860089778900146,0.04153880476951599
1770952047200813300,10.412813232421875,0.12461641430854797,-0.4043924808502197,0.03787361457943916
1770952047219784700,10.43178466796875,0.12461641430854797,-0.4153880476951599,-0.03298669680953026
1770952047238756000,10.450756103515625,0.1441640853881836,-0.4410443603992462,-0.06108647957444191
1770952047257727200,10.469727294921874,0.13927717506885529,-0.42394015192985535,-0.053756099194288254
1770952047276698600,10.48869873046875,0.13072505593299866,-0.41905322670936584,-0.10751219838857651
1770952047295670000,10.507669921875,0.12950333952903748,-0.4324922561645508,-0.11484257876873016
1770952047314641400,10.526641357421875,0.12583814561367035,-0.4471530318260193,-0.12950333952903748
1770952047333612500,10.545612548828124,0.12705987691879272,-0.4508182108402252,-0.14660754799842834
1770952047352584000,10.564583984375,0.1331685185432434,-0.44959646463394165,-0.11606431007385254
1770952047371555300,10.583555419921876,0.12217295914888382,-0.44959646463394165,-0.1490510106086731
1770952047390526500,10.6025263671875,0.11972949653863907,-0.46425724029541016,-0.1282816082239151
1770952047409497900,10.621497802734375,0.1282816082239151,-0.46425724029541016,-0.07941242307424545
1770952047428469200,10.64046923828125,0.13194678723812103,-0.47036588191986084,-0.06719512492418289
1770952047447440400,10.6594404296875,0.13439024984836578,-0.4679224193096161,-0.028099779039621353
1770952047466411800,10.678411865234375,0.1282816082239151,-0.4520399272441864,-0.014660755172371864
1770952047485383200,10.697383056640625,0.11606431007385254,-0.4569268524646759,-0.030543239787220955
1770952047504354300,10.716354248046875,0.11239911615848541,-0.4630354940891266,-0.004886918235570192
1770952047523325700,10.73532568359375,0.12095122784376144,-0.4630354940891266,0.023212861269712448
1770952047542297000,10.754297119140626,0.1185077652335167,-0.4508182108402252,0.028099779039621353
1770952047561268200,10.773268310546875,0.1233946830034256,-0.44837474822998047,0.06597339361906052
1770952047589725200,10.80172509765625,0.12950333952903748,-0.44348782300949097,0.0769689604640007
1770952047608696600,10.820696533203124,0.12705987691879272,-0.4471530318260193,0.08429934084415436
1770952047627668000,10.83966796875,0.12583814561367035,-0.4459312856197357,0.10506874322891235
1770952047646639000,10.85863916015625,0.1282816082239151,-0.45448338985443115,0.11362084746360779
1770952047665610500,10.877610595703125,0.1233946830034256,-0.4459312856197357,0.08429934084415436
1770952047684581600,10.89658154296875,0.11972949653863907,-0.43371400237083435,0.06719512492418289
1770952047703553000,10.915552978515626,0.12217295914888382,-0.4410443603992462,0.053756099194288254
1770952047722524400,10.9345244140625,0.1331685185432434,-0.4459312856197357,0.04276053607463837
1770952047741495600,10.95349560546875,0.1380554437637329,-0.43004879355430603,0.040317077189683914
1770952047760466700,10.972466796875,0.14660754799842834,-0.4312705397605896,0.014660755172371864
1770952047779438000,10.99143798828125,0.1588248461484909,-0.4251618981361389,0.014660755172371864
1770952047807895000,11.01989501953125,0.1698204129934311,-0.4324922561645508,-0.001221729558892548
1770952047826866200,11.0388662109375,0.16737695038318634,-0.41294458508491516,-0.008552107028663158
1770952047845837600,11.057837646484375,0.17226386070251465,-0.41905322670936584,-0.02932151034474373
1770952047864808700,11.07680859375,0.18203771114349365,-0.42394015192985535,-0.03298669680953026
1770952047883780000,11.095780029296876,0.1844811588525772,-0.4251618981361389,-0.046425722539424896
1770952047902751500,11.11475146484375,0.18692462146282196,-0.4263836145401001,-0.05253437161445618
1770952047921722600,11.13372265625,0.1844811588525772,-0.4251618981361389,-0.07941242307424545
1770952047940694000,11.152694091796874,0.1844811588525772,-0.4251618981361389,-0.06841685622930527
1770952047959665200,11.1716650390625,0.1795942485332489,-0.4312705397605896,-0.07941242307424545
1770952047978636300,11.19063623046875,0.17104214429855347,-0.4214966893196106,-0.0513126403093338
1770952047997607700,11.209607666015625,0.1747073233127594,-0.42394015192985535,-0.021991131827235222
1770952048016578800,11.228578857421875,0.17837251722812653,-0.4422661066055298,-0.010995565913617611
1770952048035550200,11.24755029296875,0.16249002516269684,-0.4312705397605896,0
1770952048054521300,11.266521240234376,0.16615521907806396,-0.43493571877479553,0.021991131827235222
1770952048073492700,11.28549267578125,0.1747073233127594,-0.4373791813850403,0.03543015569448471
1770952048101949400,11.313949462890625,0.16004657745361328,-0.4471530318260193,0.03176496922969818
1770952048120920800,11.3329208984375,0.15638138353824615,-0.4520399272441864,0.03543015569448471
1770952048139892000,11.35189208984375,0.14660754799842834,-0.4410443603992462,0.043982263654470444
1770952048158863400,11.37086328125,0.15149445831775665,-0.44959646463394165,0.06352993845939636
1770952048177834500,11.38983447265625,0.15027274191379547,-0.4471530318260193,0.07819069176912308
1770952048196806000,11.408805908203124,0.14660754799842834,-0.43982264399528503,0.06230820715427399
1770952048215777000,11.427777099609376,0.15638138353824615,-0.43982264399528503,0.06230820715427399
1770952048234748200,11.446748046875,0.1637117564678192,-0.44837474822998047,0.05497783049941063
1770952048253719300,11.46571923828125,0.16737695038318634,-0.44348782300949097,0.06108647957444191
1770952048272690700,11.484690673828124,0.17592905461788177,-0.4471530318260193,0.06719512492418289
1770952048291661800,11.503661865234376,0.1747073233127594,-0.4459312856197357,0.06108647957444191
1770952048310633200,11.52263330078125,0.16737695038318634,-0.43982264399528503,0.04764745384454727
1770952048329604400,11.541604248046875,0.17715078592300415,-0.4581485986709595,0.04764745384454727
1770952048348575500,11.560575439453125,0.17226386070251465,-0.4520399272441864,0.04520399495959282
1770952048367547000,11.579546875,0.1698204129934311,-0.4459312856197357,0.020769402384757996
1770952048386518000,11.59851806640625,0.16737695038318634,-0.44959646463394165,0.021991131827235222
1770952048405489200,11.6174892578125,0.16859868168830872,-0.4581485986709595,0.01588248461484909
1770952048424460500,11.63646044921875,0.17592905461788177,-0.4557051360607147,0.026878049597144127
1770952048443431700,11.655431640625,0.16615521907806396,-0.45937031507492065,0.014660755172371864
1770952048462402800,11.67440283203125,0.16615521907806396,-0.4630354940891266,0.010995565913617611
1770952048481374000,11.6933740234375,0.16737695038318634,-0.4728093445301056,-0.009773836471140385
1770952048500345300,11.712345458984375,0.16859868168830872,-0.4776962697505951,-0.001221729558892548
1770952048519316500,11.73131640625,0.1649334877729416,-0.46914416551589966,-0.021991131827235222
1770952048538287600,11.75028759765625,0.1588248461484909,-0.4789179861545563,-0.03298669680953026
1770952048557259000,11.769259033203125,0.15760311484336853,-0.48502662777900696,-0.03176496922969818
1770952048576230100,11.788230224609375,0.16004657745361328,-0.48991355299949646,-0.043982263654470444
1770952048595201300,11.807201171875,0.1649334877729416,-0.4972439408302307,-0.020769402384757996
1770952048614172400,11.82617236328125,0.16615521907806396,-0.5057960152626038,-0.024434590712189674
1770952048633143600,11.8451435546875,0.16859868168830872,-0.4984656572341919,-0.014660755172371864
1770952048652115000,11.864114990234375,0.1698204129934311,-0.5106829404830933,-0.028099779039621353
1770952048671086000,11.883086181640625,0.17715078592300415,-0.5009090900421143,0.007330377586185932
1770952048690057200,11.90205712890625,0.18325942754745483,-0.5094612240791321,0.018325943499803543
1770952048709028400,11.9210283203125,0.19181154668331146,-0.516791582107544,0.04886918142437935
1770952048727999500,11.93999951171875,0.19914191961288452,-0.5216785073280334,0.05497783049941063
1770952048746970600,11.958970703125,0.1905898153781891,-0.5143481492996216,0.05864302068948746
1770952048765942000,11.97794189453125,0.19303326308727264,-0.5216785073280334,0.06475166976451874
1770952048784913200,11.9969130859375,0.1954767256975174,-0.5326740741729736,0.06352993845939636
1770952048803884300,12.01588427734375,0.19669845700263977,-0.5277871489524841,0.05253437161445618
1770952048822855400,12.03485546875,0.2003636509180069,-0.5180133581161499,0.06475166976451874
1770952048841826600,12.05382666015625,0.21380266547203064,-0.5290089249610901,0.10018182545900345
1770952048860797700,12.072797607421874,0.21380266547203064,-0.5338957905769348,0.09651663154363632
1770952048879768800,12.091768798828125,0.21746785938739777,-0.5375609993934631,0.09162971377372742
1770952048898740000,12.110739990234375,0.2260199636220932,-0.5338957905769348,0.10018182545900345
1770952048917711000,12.129711181640625,0.21868959069252014,-0.5338957905769348,0.08063415437936783
1770952048936682500,12.1486826171875,0.21868959069252014,-0.5400044918060303,0.0769689604640007
1770952048955653600,12.167653564453126,0.22479823231697083,-0.5473348498344421,0.06230820715427399
1770952048974624800,12.186624755859375,0.2211330533027649,-0.5314523577690125,0.024434590712189674
1770952048993596000,12.205595947265625,0.2370155304670334,-0.5485565662384033,0.021991131827235222
1770952049012567000,12.224567138671874,0.24801109731197357,-0.5571087002754211,0.023212861269712448
1770952049031538200,12.2435380859375,0.2370155304670334,-0.5412262082099915,-0.03176496922969818
1770952049050509300,12.26250927734375,0.23945899307727814,-0.5400044918060303,-0.04764745384454727
1770952049069480400,12.28148046875,0.24923282861709595,-0.5522217750549316,-0.04153880476951599
1770952049088451600,12.30045166015625,0.26389357447624207,-0.5790998339653015,0.007330377586185932
1770952049116908300,12.328908203125,0.25411975383758545,-0.5900954008102417,-0.010995565913617611
1770952049135879400,12.34787939453125,0.2370155304670334,-0.5803215503692627,-0.01954767294228077
1770952049154850600,12.3668505859375,0.2211330533027649,-0.5815432667732239,-0.034208428114652634
1770952049173821700,12.38582177734375,0.21746785938739777,-0.6047561168670654,-0.03298669680953026
1770952049192792800,12.404792724609376,0.2211330533027649,-0.6157516837120056,0.002443459117785096
1770952049211764000,12.423763916015625,0.20769402384757996,-0.6084213256835938,0.004886918235570192
1770952049230735000,12.442735107421875,0.19792018830776215,-0.6035344004631042,0.023212861269712448
1770952049249706200,12.461706298828124,0.20158538222312927,-0.6352993845939636,0.013439024798572063
1770952049268677400,12.480677490234376,0.18570289015769958,-0.6169734001159668,-0.004886918235570192
1770952049306619600,12.51861962890625,0.20402882993221283,-0.6352993845939636,0.0513126403093338
1770952049325590800,12.5375908203125,0.19792018830776215,-0.6352993845939636,0.03787361457943916
1770952049344562000,12.55656201171875,0.19181154668331146,-0.6059778332710266,0.05864302068948746
1770952049363532800,12.57553271484375,0.20402882993221283,-0.6230821013450623,0.08063415437936783
1770952049382504000,12.59450390625,0.2162461280822754,-0.6243038177490234,0.07330377399921417
1770952049401475000,12.61347509765625,0.21991132199764252,-0.6145299673080444,0.08796452730894089
1770952049420446200,12.6324462890625,0.23823726177215576,-0.6230821013450623,0.11117739230394363
1770952049439417300,12.651417236328125,0.23335035145282745,-0.6071996092796326,0.10629047453403473
1770952049458388500,12.670388427734375,0.2419024556875229,-0.6145299673080444,0.09040798991918564
1770952049477359600,12.689359619140625,0.24923282861709595,-0.6206386089324951,0.0818558782339096
1770952049496330800,12.708330810546874,0.25411975383758545,-0.6133082509040833,0.06475166976451874
1770952049515302000,12.727302001953126,0.2467893660068512,-0.6071996092796326,0.036651886999607086
1770952049534272800,12.746272705078125,0.25411975383758545,-0.6157516837120056,0.046425722539424896
1770952049553244000,12.765243896484375,0.25534147024154663,-0.6243038177490234,0.053756099194288254
1770952049572215000,12.784215087890624,0.2528980076313019,-0.6071996092796326,0.06963858753442764
1770952049591186200,12.803186279296876,0.25534147024154663,-0.6120865345001221,0.046425722539424896
1770952049610157300,12.8221572265625,0.24801109731197357,-0.6133082509040833,0.030543239787220955
1770952049629128200,12.841128173828125,0.24801109731197357,-0.6096430420875549,-0.007330377586185932
1770952049648099300,12.860099365234374,0.25411975383758545,-0.6108647584915161,-0.01954767294228077
1770952049667070500,12.879070556640626,0.26022839546203613,-0.6145299673080444,-0.009773836471140385
1770952049686041600,12.89804150390625,0.25045454502105713,-0.6071996092796326,-0.034208428114652634
1770952049705012700,12.9170126953125,0.24312418699264526,-0.6133082509040833,-0.046425722539424896
1770952049723983600,12.935983642578124,0.2528980076313019,-0.6145299673080444,-0.034208428114652634
1770952049752440300,12.9644404296875,0.25411975383758545,-0.6157516837120056,0.004886918235570192
1770952049771411500,12.983411376953125,0.2528980076313019,-0.6084213256835938,0.013439024798572063
1770952049790382600,13.002382568359375,0.24801109731197357,-0.6108647584915161,0.004886918235570192
1770952049809353500,13.021353515625,0.2406807243824005,-0.6084213256835938,0.001221729558892548
1770952049828324600,13.04032470703125,0.235793799161911,-0.6243038177490234,0.001221729558892548
1770952049847295700,13.059295654296875,0.2260199636220932,-0.6194168925285339,0.006108647678047419
1770952049866266600,13.0782666015625,0.22479823231697083,-0.6084213256835938,0.026878049597144127
1770952049885237800,13.09723779296875,0.22235478460788727,-0.6096430420875549,0.021991131827235222
1770952049904209000,13.116208984375,0.21868959069252014,-0.6169734001159668,0.050090912729501724
1770952049932665300,13.144665283203125,0.2101374864578247,-0.6120865345001221,0.08307760953903198
1770952049951636500,13.163636474609374,0.2101374864578247,-0.6181951761245728,0.08307760953903198
1770952049970607600,13.182607666015626,0.20647229254245758,-0.6108647584915161,0.08307760953903198
1770952049989578800,13.201578857421875,0.20769402384757996,-0.6035344004631042,0.10629047453403473
1770952050027520800,13.239520751953124,0.21868959069252014,-0.6206386089324951,0.09896009415388107
1770952050046491600,13.25849169921875,0.21746785938739777,-0.6181951761245728,0.11484257876873016
1770952050065462800,13.277462890625,0.2260199636220932,-0.6108647584915161,0.10751219838857651
1770952050084434000,13.296433837890625,0.2260199636220932,-0.5962040424346924,0.10873392969369888
1770952050103404800,13.31540478515625,0.22235478460788727,-0.5962040424346924,0.09162971377372742
1770952050122376000,13.3343759765625,0.21746785938739777,-0.6035344004631042,0.08674279600381851
1770952050141347000,13.35334716796875,0.2162461280822754,-0.6023126840591431,0.10506874322891235
1770952050169803500,13.381803466796875,0.20280711352825165,-0.6133082509040833,0.08429934084415436
1770952050188774700,13.400774658203124,0.19669845700263977,-0.6035344004631042,0.07330377399921417
1770952050207745500,13.41974560546875,0.20280711352825165,-0.6145299673080444,0.05497783049941063
1770952050226716700,13.438716552734375,0.20280711352825165,-0.6194168925285339,0.053756099194288254
1770952050245687800,13.457687744140625,0.19914191961288452,-0.6071996092796326,0.03543015569448471
1770952050264658700,13.47665869140625,0.20158538222312927,-0.6194168925285339,0.013439024798572063
1770952050283629600,13.495629638671875,0.2052505612373352,-0.6316341757774353,0.020769402384757996
1770952050302600700,13.5146005859375,0.19792018830776215,-0.6206386089324951,0.007330377586185932
1770952050321571800,13.53357177734375,0.2003636509180069,-0.6157516837120056,0.023212861269712448
1770952050350028300,13.5620283203125,0.2052505612373352,-0.6181951761245728,0.03909534588456154
1770952050368999200,13.580999267578125,0.20769402384757996,-0.6120865345001221,0.06352993845939636
1770952050387970300,13.59997021484375,0.20647229254245758,-0.6206386089324951,0.05742128938436508
1770952050406941400,13.61894140625,0.19914191961288452,-0.6255255341529846,0.03787361457943916
1770952050425912300,13.637912353515626,0.18692462146282196,-0.6096430420875549,0.007330377586185932
1770952050444883200,13.65688330078125,0.1954767256975174,-0.6096430420875549,0.030543239787220955
1770952050463854300,13.675854248046875,0.2003636509180069,-0.6181951761245728,0.02932151034474373
1770952050482825500,13.694825439453124,0.20158538222312927,-0.6071996092796326,0.053756099194288254
1770952050501796400,13.71379638671875,0.20891575515270233,-0.6084213256835938,0.056199558079242706
1770952050520767500,13.732767578125,0.21502439677715302,-0.6023126840591431,0.07574722915887833
1770952050539738400,13.75173828125,0.21135921776294708,-0.5925388336181641,0.06597339361906052
1770952050558709200,13.770709228515624,0.20769402384757996,-0.5815432667732239,0.053756099194288254
1770952050577680400,13.789680419921876,0.21135921776294708,-0.5888736248016357,0.053756099194288254
1770952050596651300,13.8086513671875,0.21380266547203064,-0.5913171172142029,0.050090912729501724
1770952050615622400,13.827622314453125,0.21502439677715302,-0.5815432667732239,0.06841685622930527
1770952050634593300,13.84659326171875,0.21746785938739777,-0.5852084755897522,0.06230820715427399
1770952050653564400,13.865564453125,0.22357651591300964,-0.5900954008102417,0.08063415437936783
1770952050672535300,13.884535400390625,0.2162461280822754,-0.5778780579566956,0.07574722915887833
1770952050691506400,13.90350634765625,0.21502439677715302,-0.574212908744812,0.0720820426940918
1770952050719963000,13.931962890625,0.21502439677715302,-0.5705476999282837,0.07819069176912308
1770952050738933800,13.950933837890625,0.20769402384757996,-0.5668824911117554,0.07452550530433655
1770952050757904600,13.969904541015625,0.2003636509180069,-0.574212908744812,0.040317077189683914
1770952050776875800,13.988875732421874,0.20647229254245758,-0.5717694163322449,0.04276053607463837
1770952050795846700,14.0078466796875,0.20158538222312927,-0.5607738494873047,0.03176496922969818
1770952050814817800,14.02681787109375,0.19914191961288452,-0.5607738494873047,0.020769402384757996
1770952050833788700,14.04578857421875,0.20158538222312927,-0.5607738494873047,0.05864302068948746
1770952050852759600,14.064759521484374,0.1954767256975174,-0.5668824911117554,0.026878049597144127
1770952050871730700,14.083730712890626,0.19425499439239502,-0.5619956254959106,0.017104214057326317
1770952050890701600,14.10270166015625,0.19303326308727264,-0.5595521330833435,0.01588248461484909
1770952050909672400,14.12167236328125,0.18692462146282196,-0.5619956254959106,0.01588248461484909
1770952050928643600,14.1406435546875,0.17837251722812653,-0.5595521330833435,0.012217295356094837
1770952050947614500,14.159614501953126,0.17226386070251465,-0.5473348498344421,0.013439024798572063
1770952050966585300,14.17858544921875,0.17715078592300415,-0.5412262082099915,0.01954767294228077
1770952050985556500,14.197556396484375,0.17715078592300415,-0.5314523577690125,0.024434590712189674
1770952051004527400,14.21652734375,0.1795942485332489,-0.5400044918060303,0.01588248461484909
1770952051023498200,14.235498291015626,0.17837251722812653,-0.5302306413650513,0.026878049597144127
1770952051042469400,14.254469482421875,0.16126830875873566,-0.5021308660507202,-0.020769402384757996
1770952051061440300,14.273440185546875,0.15638138353824615,-0.5033525824546814,-0.04520399495959282
1770952051080411100,14.2924111328125,0.17104214429855347,-0.5082395076751709,-0.018325943499803543
1770952051099382000,14.311382080078126,0.17348559200763702,-0.49968740344047546,-0.0256563201546669
1770952051118353200,14.330353271484375,0.1747073233127594,-0.4862483739852905,0.009773836471140385
1770952051137324000,14.349323974609375,0.16737695038318634,-0.47525280714035034,-0.006108647678047419
1770952051156295000,14.368294921875,0.1637117564678192,-0.4569268524646759,-0.004886918235570192
1770952051175266000,14.38726611328125,0.1747073233127594,-0.4618137776851654,0.001221729558892548
1770952051203722200,14.41572216796875,0.1747073233127594,-0.44959646463394165,-0.012217295356094837
1770952051222693400,14.434693359375,0.1539379209280014,-0.41416633129119873,-0.001221729558892548
1770952051241664300,14.453664306640626,0.16249002516269684,-0.401949018239975,0.028099779039621353
1770952051260635100,14.47263525390625,0.1649334877729416,-0.411722868680954,0.01954767294228077
1770952051279606000,14.49160595703125,0.1637117564678192,-0.4068359434604645,-0.002443459117785096
1770952051298577000,14.510576904296874,0.16126830875873566,-0.38728827238082886,0.013439024798572063
1770952051317548000,14.529548095703126,0.16126830875873566,-0.37262752652168274,0.004886918235570192
1770952051336519000,14.548518798828125,0.15027274191379547,-0.36163195967674255,-0.020769402384757996
1770952051355489800,14.56748974609375,0.14538581669330597,-0.3530798554420471,-0.03787361457943916
1770952051383946200,14.5959462890625,0.16004657745361328,-0.3433060050010681,0.009773836471140385
1770952051402917000,14.614917236328125,0.16004657745361328,-0.3433060050010681,-0.017104214057326317
1770952051421888000,14.633887939453125,0.15027274191379547,-0.328645259141922,-0.017104214057326317
1770952051440859000,14.65285888671875,0.1490510106086731,-0.33231043815612793,-0.01588248461484909
1770952051459829800,14.671829833984376,0.1441640853881836,-0.3176496922969818,0.008552107028663158
1770952051478800600,14.690800537109375,0.14049890637397766,-0.2993237376213074,0.0256563201546669
1770952051497771500,14.709771484375,0.14172062277793884,-0.3029889166355133,0.018325943499803543
1770952051516742700,14.72874267578125,0.13683371245861053,-0.30054548382759094,0.018325943499803543
1770952051535713500,14.747713623046875,0.12217295914888382,-0.27855435013771057,0.010995565913617611
1770952051554684400,14.766684326171875,0.11728604137897491,-0.2724456787109375,-0.030543239787220955
1770952051573655300,14.7856552734375,0.11606431007385254,-0.27000224590301514,-0.009773836471140385
1770952051592626200,14.804626220703126,0.11362084746360779,-0.26389357447624207,-0.001221729558892548
1770952051611597000,14.82359716796875,0.11972949653863907,-0.25534147024154663,0.043982263654470444
1770952051630568000,14.84256787109375,0.1185077652335167,-0.2516762912273407,0.03298669680953026
1770952051649538800,14.861538818359374,0.12583814561367035,-0.23457208275794983,0.0513126403093338
1770952051668509700,14.880509765625,0.12583814561367035,-0.2162461280822754,0.053756099194288254
1770952051687480600,14.89948046875,0.12950333952903748,-0.2101374864578247,0.06719512492418289
1770952051706451500,14.918451416015625,0.12705987691879272,-0.2052505612373352,0.026878049597144127
1770952051725422300,14.93742236328125,0.1331685185432434,-0.2162461280822754,0.012217295356094837
1770952051744393200,14.956393310546876,0.11606431007385254,-0.20158538222312927,0.008552107028663158
1770952051763364000,14.975364013671875,0.11362084746360779,-0.1893680840730667,0.007330377586185932
1770952051782335000,14.9943349609375,0.11728604137897491,-0.18325942754745483,0.009773836471140385
1770952051801305900,15.013305908203124,0.1185077652335167,-0.18203771114349365,-0.008552107028663158
1770952051820276700,15.03227685546875,0.11362084746360779,-0.1588248461484909,-0.007330377586185932
1770952051839247600,15.05124755859375,0.12095122784376144,-0.16737695038318634,-0.030543239787220955
1770952051858218500,15.070218505859375,0.10873392969369888,-0.17348559200763702,-0.06352993845939636
1770952051877189400,15.089189453125,0.11606431007385254,-0.15149445831775665,0.004886918235570192
1770952051896160300,15.10816015625,0.1026252806186676,-0.1380554437637329,0.007330377586185932
1770952051915131100,15.127131103515625,0.08674279600381851,-0.13439024984836578,-0.003665188793092966
1770952051934102000,15.14610205078125,0.07330377399921417,-0.14538581669330597,-0.05742128938436508
1770952051953073000,15.165072998046876,0.06719512492418289,-0.13683371245861053,-0.034208428114652634
1770952051972043800,15.184043701171875,0.06108647957444191,-0.14538581669330597,-0.024434590712189674
1770952051991014700,15.2030146484375,0.059864748269319534,-0.15271618962287903,-0.001221729558892548
1770952052009985500,15.221985595703124,0.028099779039621353,-0.11972949653863907,-0.002443459117785096
1770952052028956400,15.240956298828126,0.0256563201546669,-0.1185077652335167,0.03298669680953026
1770952052066898200,15.278898193359375,0.001221729558892548,-0.11484257876873016,0.040317077189683914
1770952052085868800,15.297868896484376,0,-0.12217295914888382,0.036651886999607086
1770952052104839700,15.316839599609375,-0.012217295356094837,-0.11362084746360779,0.023212861269712448
1770952052123810600,15.335810546875,-0.024434590712189674,-0.10751219838857651,0.006108647678047419
1770952052142781400,15.354781494140624,-0.0256563201546669,-0.12095122784376144,0.030543239787220955
1770952052161752300,15.37375244140625,-0.0256563201546669,-0.12095122784376144,0.059864748269319534
1770952052180723200,15.39272314453125,-0.036651886999607086,-0.1026252806186676,0.03298669680953026
1770952052199693800,15.41169384765625,-0.02932151034474373,-0.0977383628487587,0.026878049597144127
1770952052218665000,15.4306650390625,-0.023212861269712448,-0.11239911615848541,0.04520399495959282
1770952052237635600,15.449635498046876,-0.023212861269712448,-0.09407317638397217,0.05742128938436508
1770952052256606500,15.4686064453125,-0.024434590712189674,-0.08918625861406326,0.04764745384454727
1770952052275577300,15.487577392578125,-0.024434590712189674,-0.10873392969369888,0.021991131827235222
1770952052294548200,15.50654833984375,-0.0256563201546669,-0.09285144507884979,0.030543239787220955
1770952052313519000,15.52551904296875,-0.04276053607463837,-0.0769689604640007,-0.017104214057326317
1770952052332489700,15.54448974609375,-0.026878049597144127,-0.07941242307424545,0.008552107028663158
1770952052351460600,15.563460693359374,-0.021991131827235222,-0.06352993845939636,-0.008552107028663158
1770952052379916800,15.591916748046875,-0.01588248461484909,-0.05497783049941063,-0.021991131827235222
1770952052408373200,15.620373291015625,0.007330377586185932,-0.0513126403093338,0.008552107028663158
1770952052427344100,15.63934423828125,0.018325943499803543,-0.034208428114652634,0
1770952052446314800,15.658314697265626,0.021991131827235222,-0.023212861269712448,0.012217295356094837
1770952052465285600,15.67728564453125,0.034208428114652634,-0.034208428114652634,-0.040317077189683914
1770952052484256500,15.696256591796875,0.04764745384454727,-0.02932151034474373,-0.036651886999607086
1770952052503227100,15.71522705078125,0.056199558079242706,-0.020769402384757996,-0.04153880476951599
1770952052522198000,15.734197998046875,0.07452550530433655,-0.02932151034474373,-0.03543015569448471
1770952052541169000,15.7531689453125,0.0720820426940918,-0.020769402384757996,-0.04276053607463837
1770952052560139500,15.772139404296874,0.08674279600381851,-0.013439024798572063,-0.017104214057326317
1770952052579110400,15.7911103515625,0.09529490768909454,-0.003665188793092966,0.013439024798572063
1770952052598081300,15.810081298828125,0.09529490768909454,0.01588248461484909,0.017104214057326317
1770952052617052000,15.829052001953125,0.10140355676412582,0.017104214057326317,0
1770952052636022800,15.848022705078124,0.10751219838857651,-0.003665188793092966,0.006108647678047419
1770952052654993700,15.86699365234375,0.10506874322891235,0.012217295356094837,0.04153880476951599
1770952052673964500,15.885964599609375,0.08796452730894089,0.004886918235570192,0.006108647678047419
1770952052692935200,15.90493505859375,0.09896009415388107,0.006108647678047419,-0.009773836471140385
1770952052711906000,15.923906005859376,0.1026252806186676,0.001221729558892548,-0.009773836471140385
1770952052730877000,15.942876953125,0.0977383628487587,0.008552107028663158,-0.004886918235570192
1770952052749847600,15.96184765625,0.08307760953903198,0.004886918235570192,-0.040317077189683914
1770952052768818400,15.980818359375,0.08674279600381851,-0.003665188793092966,-0.006108647678047419
1770952052787789300,15.999789306640626,0.07941242307424545,0.004886918235570192,-0.001221729558892548
1770952052806760000,16.018760009765625,0.07330377399921417,0.001221729558892548,0.008552107028663158
1770952052825730800,16.037730712890625,0.07574722915887833,-0.010995565913617611,0.01954767294228077
1770952052844701400,16.056701416015624,0.059864748269319534,0.004886918235570192,0.017104214057326317
1770952052863672300,16.07567236328125,0.043982263654470444,0.001221729558892548,0.030543239787220955
1770952052892128500,16.10412841796875,0.001221729558892548,-0.018325943499803543,-0.01954767294228077
1770952052911099100,16.12309912109375,-0.002443459117785096,-0.021991131827235222,-0.0256563201546669
1770952052930070000,16.142070068359374,-0.014660755172371864,-0.023212861269712448,-0.04153880476951599
1770952052949041000,16.161041015625,-0.01954767294228077,-0.030543239787220955,-0.046425722539424896
1770952052968011500,16.180011474609376,-0.028099779039621353,-0.02932151034474373,0.008552107028663158
1770952052986982400,16.198982421875,-0.03298669680953026,-0.03176496922969818,0.012217295356094837
1770952053005953000,16.217953125,-0.0513126403093338,-0.02932151034474373,0.008552107028663158
1770952053024924000,16.236923828125,-0.03909534588456154,-0.03543015569448471,0.002443459117785096
1770952053043894500,16.25589453125,-0.046425722539424896,-0.0256563201546669,-0.002443459117785096
1770952053062865400,16.274865478515625,-0.04276053607463837,-0.02932151034474373,-0.030543239787220955
1770952053081836300,16.293836181640625,-0.04276053607463837,-0.023212861269712448,0.009773836471140385
1770952053100807000,16.312806884765624,-0.02932151034474373,-0.024434590712189674,0.026878049597144127
1770952053119777800,16.33177783203125,-0.024434590712189674,-0.03298669680953026,0.017104214057326317
1770952053138748400,16.35074853515625,-0.012217295356094837,-0.03787361457943916,0.023212861269712448
1770952053157719300,16.36971923828125,-0.01954767294228077,-0.030543239787220955,0.009773836471140385
1770952053176690000,16.38868994140625,-0.008552107028663158,-0.008552107028663158,-0.002443459117785096
1770952053195660500,16.40766064453125,0.004886918235570192,-0.012217295356094837,0.013439024798572063
1770952053214631400,16.42663134765625,0.018325943499803543,-0.009773836471140385,0.028099779039621353
1770952053233602300,16.445602294921876,0.023212861269712448,-0.003665188793092966,0.026878049597144127
1770952053252573000,16.464572998046876,0.040317077189683914,-0.012217295356094837,0.03787361457943916
1770952053271543800,16.483543701171875,0.040317077189683914,0.003665188793092966,0.01954767294228077
1770952053290514400,16.502514404296875,0.04153880476951599,0.012217295356094837,0.010995565913617611
1770952053309485000,16.521485107421874,0.050090912729501724,0.004886918235570192,0.008552107028663158
1770952053328456000,16.5404560546875,0.05497783049941063,0.002443459117785096,0.009773836471140385
1770952053347426600,16.559426513671873,0.06108647957444191,0.01588248461484909,0.023212861269712448
1770952053366397400,16.5783974609375,0.06108647957444191,0.013439024798572063,-0.003665188793092966
1770952053385368000,16.5973681640625,0.0513126403093338,0.017104214057326317,0.012217295356094837
1770952053404339000,16.6163388671875,0.04520399495959282,0.024434590712189674,0
1770952053423309600,16.6353095703125,0.043982263654470444,0.021991131827235222,-0.006108647678047419
1770952053451765800,16.663765869140626,0.03298669680953026,0.03787361457943916,-0.017104214057326317
1770952053470736400,16.682736328125,0.03298669680953026,0.01588248461484909,-0.02932151034474373
1770952053489707000,16.70170703125,0.03909534588456154,0.018325943499803543,0.004886918235570192
1770952053508678000,16.720677978515624,0.026878049597144127,-0.001221729558892548,-0.001221729558892548
1770952053527648500,16.7396484375,0.03298669680953026,0.02932151034474373,-0.006108647678047419
1770952053546619100,16.758619140625,0.030543239787220955,0.01954767294228077,-0.036651886999607086
1770952053565590000,16.777590087890626,0.030543239787220955,0.007330377586185932,-0.026878049597144127
1770952053584560600,16.796560546875,0.018325943499803543,0.008552107028663158,-0.030543239787220955
1770952053603531500,16.815531494140625,0.003665188793092966,0.007330377586185932,-0.04764745384454727
1770952053622502100,16.834502197265625,-0.007330377586185932,0.01588248461484909,-0.02932151034474373
1770952053641472800,16.85347265625,-0.017104214057326317,0.017104214057326317,-0.03543015569448471
1770952053660443600,16.872443603515624,-0.024434590712189674,-0.001221729558892548,-0.020769402384757996
1770952053679414300,16.891414306640623,-0.03176496922969818,-0.008552107028663158,-0.008552107028663158
1770952053698385000,16.910385009765626,-0.040317077189683914,-0.012217295356094837,-0.018325943499803543
1770952053717355800,16.929355712890626,-0.050090912729501724,-0.004886918235570192,-0.013439024798572063
1770952053736326400,16.948326416015625,-0.059864748269319534,-0.008552107028663158,-0.017104214057326317
1770952053755297000,16.967297119140625,-0.06719512492418289,-0.020769402384757996,0.009773836471140385
1770952053774268000,16.986267822265624,-0.06841685622930527,-0.017104214057326317,0.03909534588456154
1770952053793238500,17.005238525390624,-0.0769689604640007,-0.010995565913617611,0.01954767294228077
1770952053812209200,17.024209228515623,-0.0720820426940918,-0.017104214057326317,0.014660755172371864
1770952053831180000,17.043179931640626,-0.08429934084415436,-0.03298669680953026,-0.023212861269712448
1770952053850150700,17.062150634765626,-0.08918625861406326,-0.021991131827235222,0.020769402384757996
1770952053869121300,17.081121337890625,-0.08918625861406326,0,0.012217295356094837
1770952053888092000,17.100091796875,-0.09040798991918564,-0.01588248461484909,-0.021991131827235222
1770952053907062800,17.119062744140624,-0.09162971377372742,-0.03909534588456154,0
1770952053926033400,17.138033447265624,-0.08796452730894089,-0.02932151034474373,-0.009773836471140385
1770952053945004000,17.157004150390627,-0.09285144507884979,-0.006108647678047419,-0.043982263654470444
1770952053963974700,17.175974609375,-0.0818558782339096,0.009773836471140385,-0.03909534588456154
1770952053982945500,17.194945556640626,-0.06352993845939636,-0.003665188793092966,-0.014660755172371864
1770952054001916200,17.213916259765625,-0.040317077189683914,-0.008552107028663158,-0.001221729558892548
1770952054020886800,17.23288671875,-0.030543239787220955,0.006108647678047419,0.003665188793092966
1770952054039857700,17.251857666015624,-0.01588248461484909,0.0256563201546669,-0.001221729558892548
1770952054058828300,17.270828369140624,-0.002443459117785096,0.0256563201546669,-0.009773836471140385
1770952054077799000,17.289798828125,0.024434590712189674,0.013439024798572063,0.030543239787220955
1770952054096769500,17.30876953125,0.028099779039621353,0.040317077189683914,0.021991131827235222
1770952054115740400,17.327740478515626,0.034208428114652634,0.04276053607463837,0.017104214057326317
1770952054144196400,17.3561962890625,0.043982263654470444,0.036651886999607086,0.017104214057326317
1770952054163167000,17.3751669921875,0.050090912729501724,0.03787361457943916,0
1770952054182137600,17.3941376953125,0.053756099194288254,0.046425722539424896,0.02932151034474373
1770952054201108200,17.413108154296875,0.05253437161445618,0.04520399495959282,0.03176496922969818
1770952054220079000,17.4320791015625,0.04764745384454727,0.043982263654470444,0.06597339361906052
1770952054248535000,17.46053515625,0.030543239787220955,0.03298669680953026,0.009773836471140385
1770952054267505700,17.479505615234373,0.026878049597144127,0.04153880476951599,0.002443459117785096
1770952054295961900,17.5079619140625,0.012217295356094837,0.009773836471140385,-0.02932151034474373
1770952054314932500,17.526932373046876,-0.010995565913617611,0.009773836471140385,-0.03909534588456154
1770952054333903000,17.545903076171875,-0.018325943499803543,0.024434590712189674,-0.012217295356094837
1770952054352873700,17.564873779296875,-0.017104214057326317,0.021991131827235222,-0.006108647678047419
1770952054371844400,17.58384423828125,-0.013439024798572063,0.001221729558892548,0.003665188793092966
1770952054390815000,17.60281494140625,-0.02932151034474373,0.009773836471140385,0.004886918235570192
1770952054409785600,17.62178564453125,-0.028099779039621353,-0.008552107028663158,0.046425722539424896
1770952054428756200,17.640756103515624,-0.02932151034474373,-0.009773836471140385,0.03176496922969818
1770952054447727000,17.65972705078125,-0.04520399495959282,0.014660755172371864,-0.021991131827235222
1770952054476183000,17.68818310546875,-0.04520399495959282,0.017104214057326317,0.01588248461484909
1770952054495153700,17.707153564453126,-0.043982263654470444,0.01588248461484909,0.007330377586185932
1770952054514124300,17.726124267578125,-0.050090912729501724,-0.006108647678047419,0.014660755172371864
1770952054533095000,17.745094970703125,-0.046425722539424896,-0.020769402384757996,0.021991131827235222
1770952054552065800,17.764065673828124,-0.05742128938436508,0.001221729558892548,0.026878049597144127
1770952054571036400,17.783036376953124,-0.043982263654470444,0.003665188793092966,0.040317077189683914
1770952054590007000,17.802007080078123,-0.0513126403093338,-0.008552107028663158,0.026878049597144127
1770952054618463000,17.830462890625,-0.04520399495959282,-0.034208428114652634,0.030543239787220955
1770952054637433600,17.84943359375,-0.0513126403093338,-0.007330377586185932,0.04886918142437935
1770952054656404200,17.868404296875,-0.04886918142437935,0.006108647678047419,0.02932151034474373
1770952054675374800,17.887374755859376,-0.036651886999607086,0.004886918235570192,0.003665188793092966
1770952054694345500,17.906345458984376,-0.03176496922969818,-0.003665188793092966,-0.024434590712189674
1770952054713316000,17.925316162109375,-0.014660755172371864,0.006108647678047419,-0.013439024798572063
1770952054732287000,17.944286865234375,0.010995565913617611,0.013439024798572063,0.04276053607463837
1770952054751257600,17.963257568359374,0.021991131827235222,0.017104214057326317,0.026878049597144127
1770952054770228200,17.982228271484374,0.030543239787220955,0.023212861269712448,0.014660755172371864
1770952054789198800,18.00119873046875,0.043982263654470444,0.030543239787220955,0.03787361457943916
1770952054808169500,18.02016943359375,0.050090912729501724,0.04886918142437935,0.020769402384757996
1770952054836625400,18.04862548828125,0.053756099194288254,0.034208428114652634,-0.024434590712189674
1770952054855596000,18.067595947265627,0.04764745384454727,0.036651886999607086,-0.023212861269712448
1770952054874566700,18.086566650390626,0.05497783049941063,0.03298669680953026,-0.021991131827235222
1770952054893537300,18.105537353515626,0.043982263654470444,0.04276053607463837,-0.008552107028663158
1770952054912508000,18.1245078125,0.04520399495959282,0.040317077189683914,-0.018325943499803543
1770952054931478500,18.143478515625,0.050090912729501724,0.018325943499803543,-0.007330377586185932
1770952054959934500,18.1719345703125,0.04764745384454727,0.03787361457943916,0.014660755172371864
1770952054978905000,18.190905029296875,0.056199558079242706,0.01954767294228077,0.04153880476951599
1770952054997875700,18.209875732421875,0.05742128938436508,0.034208428114652634,0.03298669680953026
1770952055016846300,18.228846435546874,0.03543015569448471,0.01954767294228077,-0.028099779039621353
1770952055035817000,18.24781689453125,0.03787361457943916,0.017104214057326317,0.002443459117785096
1770952055054787600,18.26678759765625,0.01954767294228077,0.004886918235570192,0.006108647678047419
1770952055073758200,18.28575830078125,0.009773836471140385,0.002443459117785096,0.03298669680953026
1770952055092728800,18.304728759765624,-0.007330377586185932,0.0256563201546669,0.0256563201546669
1770952055111699500,18.323699462890627,-0.026878049597144127,0.007330377586185932,0.003665188793092966
1770952055130670000,18.342670166015626,-0.03543015569448471,-0.013439024798572063,0.010995565913617611
1770952055149640700,18.361640625,-0.04764745384454727,-0.018325943499803543,0.034208428114652634
1770952055168611300,18.380611328125,-0.05253437161445618,-0.006108647678047419,0.034208428114652634
1770952055187582000,18.39958203125,-0.05742128938436508,-0.021991131827235222,-0.001221729558892548
1770952055206552600,18.418552490234376,-0.06597339361906052,-0.023212861269712448,0.01588248461484909
1770952055225523200,18.437523193359375,-0.06475166976451874,-0.009773836471140385,0.017104214057326317
1770952055244493800,18.456493896484375,-0.06475166976451874,-0.014660755172371864,0.034208428114652634
1770952055263464400,18.47546435546875,-0.05864302068948746,-0.020769402384757996,0.036651886999607086
1770952055282435000,18.49443505859375,-0.059864748269319534,-0.013439024798572063,0.03787361457943916
1770952055301405700,18.51340576171875,-0.06475166976451874,-0.012217295356094837,0.023212861269712448
1770952055320376300,18.532376220703124,-0.056199558079242706,-0.010995565913617611,0.04520399495959282
1770952055339347000,18.551346923828124,-0.05742128938436508,-0.018325943499803543,0.020769402384757996
1770952055358317600,18.570317626953123,-0.04764745384454727,-0.010995565913617611,0.012217295356094837
1770952055377288200,18.5892880859375,-0.05864302068948746,0.006108647678047419,-0.021991131827235222
1770952055396258800,18.6082587890625,-0.040317077189683914,-0.006108647678047419,-0.010995565913617611
1770952055415229400,18.6272294921875,-0.01954767294228077,-0.009773836471140385,0.01588248461484909
1770952055434200000,18.646199951171877,-0.013439024798572063,0.01588248461484909,0.009773836471140385
1770952055453170700,18.665170654296876,-0.014660755172371864,0.020769402384757996,-0.03298669680953026
1770952055472141300,18.684141357421876,0.009773836471140385,0.008552107028663158,-0.007330377586185932
1770952055491112000,18.70311181640625,0.028099779039621353,0.023212861269712448,0.012217295356094837
1770952055510082300,18.722082275390626,0.020769402384757996,0.020769402384757996,-0.009773836471140385
1770952055538538200,18.750538330078125,0.030543239787220955,0.026878049597144127,-0.020769402384757996
1770952055557508900,18.7695087890625,0.03909534588456154,0.024434590712189674,-0.001221729558892548
1770952055576479500,18.7884794921875,0.03909534588456154,0.030543239787220955,0.004886918235570192
1770952055595450000,18.8074501953125,0.024434590712189674,0.024434590712189674,-0.0256563201546669
1770952055614420700,18.826420654296875,0.034208428114652634,0.017104214057326317,-0.004886918235570192
1770952055633391400,18.845391357421875,0.03176496922969818,0.013439024798572063,-0.007330377586185932
1770952055652362000,18.864362060546874,0.0256563201546669,0.013439024798572063,-0.012217295356094837
1770952055671332600,18.88333251953125,0.028099779039621353,0.018325943499803543,-0.004886918235570192
1770952055690303200,18.90230322265625,0.012217295356094837,0.036651886999607086,-0.024434590712189674
1770952055709273900,18.92127392578125,0.013439024798572063,0.028099779039621353,-0.012217295356094837
1770952055728244200,18.940244140625,0.01954767294228077,0.01954767294228077,0
1770952055747214800,18.95921484375,0.021991131827235222,0.02932151034474373,0.017104214057326317
1770952055766185500,18.978185546875,0.026878049597144127,0.030543239787220955,0.0256563201546669
1770952055785156000,18.997156005859374,0.01954767294228077,0.028099779039621353,0.010995565913617611
1770952055804126700,19.016126708984373,0.024434590712189674,0.021991131827235222,0.021991131827235222
1770952055823097300,19.035097412109376,0.007330377586185932,0.020769402384757996,-0.018325943499803543
1770952055842068000,19.05406787109375,0.024434590712189674,0.013439024798572063,0.024434590712189674
1770952055861038300,19.073038330078123,0.012217295356094837,0.01588248461484909,-0.001221729558892548
1770952055880009000,19.092009033203126,0.003665188793092966,0.012217295356094837,-0.003665188793092966
1770952055898979600,19.1109794921875,0.003665188793092966,0.009773836471140385,-0.003665188793092966
1770952055917950200,19.1299501953125,-0.002443459117785096,0.018325943499803543,0.023212861269712448
1770952055936920800,19.1489208984375,0.014660755172371864,0.017104214057326317,0.04276053607463837
1770952055955891500,19.167891357421876,0.002443459117785096,0.017104214057326317,0.02932151034474373
1770952055974862000,19.186862060546876,-0.007330377586185932,0.012217295356094837,-0.007330377586185932
1770952055993832400,19.20583251953125,-0.010995565913617611,0.001221729558892548,0.018325943499803543
1770952056022288400,19.234288330078126,-0.03298669680953026,0.007330377586185932,-0.040317077189683914
1770952056041259000,19.253259033203125,-0.03543015569448471,-0.001221729558892548,-0.004886918235570192
1770952056060229600,19.272229736328125,-0.023212861269712448,-0.013439024798572063,0.003665188793092966
1770952056079200300,19.2912001953125,-0.030543239787220955,-0.007330377586185932,0.009773836471140385
1770952056098170600,19.310170654296876,-0.04764745384454727,-0.001221729558892548,-0.014660755172371864
1770952056117141200,19.329141357421875,-0.0513126403093338,-0.01588248461484909,-0.024434590712189674
1770952056136111900,19.34811181640625,-0.03787361457943916,-0.009773836471140385,0.010995565913617611
1770952056155082500,19.36708251953125,-0.03543015569448471,-0.013439024798572063,0.013439024798572063
1770952056183538400,19.395538330078125,-0.03176496922969818,-0.008552107028663158,-0.009773836471140385
1770952056202508800,19.4145087890625,-0.030543239787220955,-0.014660755172371864,0.01588248461484909
1770952056221479400,19.4334794921875,-0.020769402384757996,0.008552107028663158,0.030543239787220955
1770952056249935400,19.461935302734375,-0.009773836471140385,0,0.01588248461484909
1770952056268906000,19.480906005859374,0.010995565913617611,0.017104214057326317,0.021991131827235222
1770952056287876400,19.49987646484375,0.010995565913617611,0.028099779039621353,0.006108647678047419
1770952056306847000,19.518846923828125,0.013439024798572063,0.02932151034474373,0.002443459117785096
1770952056325817600,19.537817626953125,0.034208428114652634,0.01954767294228077,0.012217295356094837
1770952056344788200,19.556788330078124,0.04764745384454727,0.02932151034474373,0.010995565913617611
1770952056363758600,19.575758544921875,0.04886918142437935,0.024434590712189674,-0.006108647678047419
1770952056392214500,19.604214599609374,0.059864748269319534,0.034208428114652634,-0.01954767294228077
1770952056411185200,19.62318505859375,0.0769689604640007,0.03176496922969818,0.01588248461484909
1770952056430155800,19.64215576171875,0.07574722915887833,0.036651886999607086,0
1770952056449126100,19.661126220703125,0.07452550530433655,0.01954767294228077,-0.043982263654470444
1770952056468096800,19.6800966796875,0.0769689604640007,0.024434590712189674,-0.009773836471140385
1770952056487067400,19.6990673828125,0.06841685622930527,0.03298669680953026,-0.034208428114652634
1770952056506038000,19.7180380859375,0.07819069176912308,0.034208428114652634,-0.04276053607463837
1770952056525008400,19.73700830078125,0.07819069176912308,0.0256563201546669,-0.034208428114652634
1770952056543979000,19.75597900390625,0.06719512492418289,0.014660755172371864,-0.046425722539424896
1770952056562949600,19.77494970703125,0.08307760953903198,0.009773836471140385,-0.008552107028663158
1770952056581920000,19.793919921875,0.06475166976451874,0.036651886999607086,-0.03543015569448471
1770952056600890600,19.812890625,0.0769689604640007,0.01954767294228077,-0.023212861269712448
1770952056619861200,19.831861328125,0.06597339361906052,-0.003665188793092966,-0.01588248461484909
1770952056638831900,19.850831787109374,0.04520399495959282,0.007330377586185932,0.006108647678047419
1770952056657802200,19.86980224609375,0.036651886999607086,0,0
1770952056676772900,19.88877294921875,0.021991131827235222,-0.006108647678047419,-0.024434590712189674
1770952056695743500,19.907743408203125,0.021991131827235222,-0.026878049597144127,0.010995565913617611
1770952056714713900,19.9267138671875,0.001221729558892548,-0.030543239787220955,0.034208428114652634
1770952056743169800,19.955169677734375,-0.028099779039621353,-0.040317077189683914,0.03909534588456154
1770952056762140400,19.974140380859374,-0.04153880476951599,-0.03909534588456154,0.03298669680953026
1770952056781110800,19.99311083984375,-0.04764745384454727,-0.04520399495959282,0.028099779039621353
1770952056800081400,20.012081298828125,-0.046425722539424896,-0.06475166976451874,0.04764745384454727
1770952056819052000,20.031052001953125,-0.046425722539424896,-0.07452550530433655,0.040317077189683914
1770952056838022400,20.0500224609375,-0.046425722539424896,-0.05864302068948746,0.026878049597144127
1770952056856993000,20.068992919921875,-0.043982263654470444,-0.053756099194288254,0.01588248461484909
1770952056875963600,20.087963623046875,-0.03787361457943916,-0.06108647957444191,-0.010995565913617611
1770952056894934000,20.10693408203125,-0.028099779039621353,-0.06352993845939636,0.01588248461484909
1770952056913904600,20.125904541015625,-0.017104214057326317,-0.056199558079242706,0.036651886999607086
1770952056942360600,20.154360595703125,-0.012217295356094837,-0.06963858753442764,0.004886918235570192
1770952056961331000,20.1733310546875,-0.004886918235570192,-0.05253437161445618,-0.0256563201546669
1770952056980301600,20.192301513671875,0.002443459117785096,-0.059864748269319534,-0.036651886999607086
1770952056999272200,20.211272216796875,0.012217295356094837,-0.06963858753442764,-0.014660755172371864
1770952057018242600,20.23024267578125,0.01954767294228077,-0.06963858753442764,-0.010995565913617611
1770952057037213200,20.249213134765625,0.028099779039621353,-0.0720820426940918,0.006108647678047419
1770952057056183600,20.26818359375,0.040317077189683914,-0.07819069176912308,0.012217295356094837
1770952057075154200,20.287154296875,0.046425722539424896,-0.07819069176912308,0.010995565913617611
1770952057094124800,20.306124755859376,0.043982263654470444,-0.06841685622930527,-0.008552107028663158
1770952057113095200,20.32509521484375,0.05497783049941063,-0.0720820426940918,0.013439024798572063
1770952057132065800,20.344065673828126,0.06475166976451874,-0.08552107214927673,0.017104214057326317
1770952057151036400,20.363036376953126,0.06719512492418289,-0.09407317638397217,0.010995565913617611
1770952057179492000,20.3914921875,0.07819069176912308,-0.11117739230394363,0.0513126403093338
1770952057198462700,20.410462646484376,0.059864748269319534,-0.10629047453403473,0.028099779039621353
1770952057217433000,20.42943310546875,0.05864302068948746,-0.10751219838857651,0.050090912729501724
1770952057236403700,20.44840380859375,0.05864302068948746,-0.11117739230394363,0.050090912729501724
1770952057255374300,20.467374267578126,0.05497783049941063,-0.12095122784376144,0.03298669680953026
1770952057274344700,20.4863447265625,0.06230820715427399,-0.1331685185432434,0.059864748269319534
1770952057293315300,20.5053154296875,0.05742128938436508,-0.13683371245861053,0.05864302068948746
1770952057312285700,20.52428564453125,0.04886918142437935,-0.14172062277793884,0.028099779039621353
1770952057326513700,20.538513671875,0.050090912729501724,-0.13561198115348816,0.04520399495959282
1770952057350227000,20.56222705078125,0.04520399495959282,-0.14660754799842834,0.03298669680953026
1770952057369197300,20.581197265625,0.05253437161445618,-0.1637117564678192,0.043982263654470444
1770952057388168000,20.60016796875,0.056199558079242706,-0.17837251722812653,0.03543015569448471
1770952057407138300,20.61913818359375,0.056199558079242706,-0.1649334877729416,0.028099779039621353
1770952057426109000,20.63810888671875,0.059864748269319534,-0.1795942485332489,0.028099779039621353
1770952057445079600,20.65707958984375,0.07574722915887833,-0.19914191961288452,0.04520399495959282
1770952057464050000,20.6760498046875,0.06963858753442764,-0.1954767256975174,0.01954767294228077
1770952057483020500,20.6950205078125,0.0769689604640007,-0.19425499439239502,0.0256563201546669
1770952057501991000,20.713990966796874,0.0818558782339096,-0.2101374864578247,0.009773836471140385
1770952057520961500,20.73296142578125,0.08552107214927673,-0.21380266547203064,0.024434590712189674
1770952057539932200,20.75193212890625,0.08063415437936783,-0.2101374864578247,0.034208428114652634
1770952057558902500,20.770902587890625,0.0769689604640007,-0.22235478460788727,0.03543015569448471
1770952057577873200,20.789873046875,0.0769689604640007,-0.2260199636220932,0.03787361457943916
1770952057596843500,20.808843505859375,0.08063415437936783,-0.22968515753746033,0.02932151034474373
1770952057615814100,20.827814208984375,0.08918625861406326,-0.23823726177215576,0.036651886999607086
1770952057634784500,20.846784423828126,0.08307760953903198,-0.23335035145282745,0.03787361457943916
1770952057653755100,20.865755126953125,0.08063415437936783,-0.2370155304670334,0.021991131827235222
1770952057672725800,20.884725830078125,0.09651663154363632,-0.24312418699264526,0.040317077189683914
1770952057691696000,20.903696044921876,0.09529490768909454,-0.2467893660068512,0.034208428114652634
1770952057710666800,20.922666748046876,0.10384701192378998,-0.25534147024154663,0.024434590712189674
1770952057739122400,20.951122314453126,0.10751219838857651,-0.25900667905807495,0.04276053607463837
1770952057758093000,20.970093017578126,0.11239911615848541,-0.2663370370864868,0.05253437161445618
1770952057786548700,20.998548828125,0.11728604137897491,-0.277332603931427,0.08429934084415436
1770952057805519000,21.01751904296875,0.12095122784376144,-0.287106454372406,0.07574722915887833
1770952057824489700,21.03648974609375,0.11484257876873016,-0.27855435013771057,0.05864302068948746
1770952057843460400,21.05546044921875,0.12217295914888382,-0.2981020212173462,0.04520399495959282
1770952057862430700,21.0744306640625,0.1331685185432434,-0.3127627670764923,0.04764745384454727
1770952057881401300,21.0934013671875,0.11972949653863907,-0.2932150959968567,0.018325943499803543
1770952057900371700,21.112371826171874,0.11606431007385254,-0.3078758418560028,-0.008552107028663158
1770952057919342300,21.13134228515625,0.13072505593299866,-0.3335321843624115,0.024434590712189674
1770952057938312700,21.150312744140624,0.1282816082239151,-0.32131487131118774,0.02932151034474373
1770952057957283300,21.169283447265624,0.1233946830034256,-0.33719736337661743,0.009773836471140385
1770952057976253700,21.188253662109375,0.13439024984836578,-0.3530798554420471,0.04153880476951599
1770952057995224300,21.207224365234374,0.12705987691879272,-0.34697118401527405,0.010995565913617611
1770952058023680000,21.235679931640625,0.1380554437637329,-0.3689623177051544,-0.008552107028663158
1770952058042650400,21.254650390625,0.13683371245861053,-0.36285367608070374,-0.012217295356094837
1770952058061621000,21.27362109375,0.1380554437637329,-0.36285367608070374,-0.03298669680953026
1770952058080591400,21.29259130859375,0.1380554437637329,-0.35674503445625305,-0.026878049597144127
1770952058099562000,21.31156201171875,0.14049890637397766,-0.36163195967674255,-0.03176496922969818
1770952058118532400,21.330532470703126,0.15760311484336853,-0.36774060130119324,0.03176496922969818
1770952058137503000,21.3495029296875,0.15271618962287903,-0.3738492429256439,0.040317077189683914
1770952058156473300,21.368473388671877,0.1539379209280014,-0.3860665261745453,0.018325943499803543
1770952058175444000,21.38744384765625,0.1490510106086731,-0.39217519760131836,-0.003665188793092966
1770952058194414300,21.406414306640624,0.1441640853881836,-0.39217519760131836,-0.034208428114652634
1770952058213385000,21.425385009765623,0.1539379209280014,-0.401949018239975,-0.002443459117785096
1770952058232355300,21.444355224609374,0.15515965223312378,-0.4007273018360138,-0.009773836471140385
1770952058251326000,21.463325927734374,0.16126830875873566,-0.4153880476951599,0.017104214057326317
1770952058270296300,21.48229638671875,0.1637117564678192,-0.42882707715034485,0.034208428114652634
1770952058289266700,21.5012666015625,0.16249002516269684,-0.43371400237083435,0.034208428114652634
1770952058317722600,21.52972265625,0.16737695038318634,-0.4422661066055298,0.04153880476951599
1770952058336693000,21.54869287109375,0.16004657745361328,-0.43004879355430603,0.043982263654470444
1770952058355663400,21.567663330078126,0.17104214429855347,-0.4569268524646759,0.04764745384454727
1770952058374634000,21.586634033203126,0.17348559200763702,-0.4667007029056549,0.04153880476951599
1770952058393604400,21.605604248046873,0.16737695038318634,-0.4581485986709595,0.023212861269712448
1770952058412575000,21.624574951171876,0.1698204129934311,-0.4618137776851654,0.02932151034474373
1770952058431545300,21.64354541015625,0.1588248461484909,-0.4630354940891266,-0.003665188793092966
1770952058450516000,21.662515869140623,0.15638138353824615,-0.48013970255851746,-0.014660755172371864
1770952058469486300,21.681486328125,0.1588248461484909,-0.5009090900421143,-0.010995565913617611
1770952058488457000,21.70045703125,0.15027274191379547,-0.4838049113750458,0.003665188793092966
1770952058507427300,21.71942724609375,0.14782927930355072,-0.48502662777900696,-0.014660755172371864
1770952058526397700,21.738397705078125,0.16004657745361328,-0.48991355299949646,0.036651886999607086
1770952058545368300,21.757368408203124,0.16126830875873566,-0.49968740344047546,0.024434590712189674
1770952058573824000,21.785823974609375,0.14538581669330597,-0.49968740344047546,-0.012217295356094837
1770952058592794400,21.80479443359375,0.15271618962287903,-0.516791582107544,-0.01588248461484909
1770952058621250000,21.83325,0.16859868168830872,-0.5277871489524841,0.04520399495959282
1770952058640220700,21.852220703125,0.16004657745361328,-0.5229002237319946,0.053756099194288254
1770952058659191000,21.87119091796875,0.15760311484336853,-0.536339282989502,0.03787361457943916
1770952058678161400,21.890161376953124,0.15515965223312378,-0.5375609993934631,0.05742128938436508
1770952058697132000,21.909132080078123,0.15638138353824615,-0.5424479246139526,0.06352993845939636
1770952058716102400,21.928102294921874,0.1588248461484909,-0.544891357421875,0.05864302068948746
1770952058744558000,21.95655810546875,0.16249002516269684,-0.5424479246139526,0.0256563201546669
1770952058763528700,21.97552880859375,0.16126830875873566,-0.544891357421875,-0.006108647678047419
1770952058782499000,21.9944990234375,0.16615521907806396,-0.5424479246139526,-0.028099779039621353
1770952058801469400,22.013469482421876,0.1893680840730667,-0.546113133430481,0.007330377586185932
1770952058820440000,22.032440185546875,0.19914191961288452,-0.5534434914588928,0
1770952058839410400,22.051410400390626,0.19914191961288452,-0.536339282989502,0.023212861269712448
1770952058858380800,22.070380859375,0.20769402384757996,-0.5424479246139526,0.003665188793092966
1770952058877351200,22.08935107421875,0.21502439677715302,-0.5326740741729736,0.017104214057326317
1770952058896321800,22.10832177734375,0.22846342623233795,-0.5387827157974243,0.030543239787220955
1770952058915292200,22.127292236328124,0.23823726177215576,-0.5522217750549316,0.02932151034474373
1770952058934262500,22.146262451171875,0.23335035145282745,-0.5558869242668152,0.02932151034474373
1770952058953233200,22.165233154296875,0.22724169492721558,-0.5595521330833435,-0.01588248461484909
1770952058972203500,22.18420361328125,0.22479823231697083,-0.544891357421875,-0.043982263654470444
1770952058991174000,22.203173828125,0.23212862014770508,-0.5583304166793823,-0.021991131827235222
1770952059010144500,22.22214453125,0.2406807243824005,-0.5729911923408508,0
1770952059029115000,22.241114990234376,0.22968515753746033,-0.5619956254959106,0
1770952059057570600,22.269570556640623,0.22479823231697083,-0.5766563415527344,0.012217295356094837
1770952059076541000,22.288541015625,0.2162461280822754,-0.564439058303833,-0.002443459117785096
1770952059095511300,22.30751123046875,0.21380266547203064,-0.5717694163322449,0.007330377586185932
1770952059114482000,22.32648193359375,0.21135921776294708,-0.5937605500221252,-0.002443459117785096
1770952059142937600,22.3549375,0.20402882993221283,-0.5937605500221252,-0.004886918235570192
1770952059161908000,22.373907958984375,0.19669845700263977,-0.5876519083976746,0.01954767294228077
1770952059180878300,22.39287841796875,0.19181154668331146,-0.574212908744812,0.03909534588456154
1770952059199848700,22.4118486328125,0.18814635276794434,-0.5876519083976746,0.03909534588456154
1770952059218819300,22.4308193359375,0.1954767256975174,-0.5852084755897522,0.043982263654470444
1770952059237789700,22.449789794921877,0.18692462146282196,-0.5815432667732239,0.03298669680953026
1770952059256760000,22.468760009765624,0.18814635276794434,-0.5900954008102417,0.03909534588456154
1770952059275730700,22.487730712890624,0.19669845700263977,-0.5876519083976746,0.06108647957444191
1770952059294701000,22.506701171875,0.20158538222312927,-0.5913171172142029,0.050090912729501724
1770952059313671400,22.52567138671875,0.20158538222312927,-0.5925388336181641,0.028099779039621353
1770952059332641800,22.544641845703126,0.19792018830776215,-0.5974257588386536,0.014660755172371864
1770952059351612200,22.563612060546873,0.19914191961288452,-0.6047561168670654,0
1770952059380067800,22.59206787109375,0.1844811588525772,-0.5986474752426147,0.003665188793092966
1770952059399038200,22.6110380859375,0.19914191961288452,-0.6108647584915161,0.036651886999607086
1770952059418008600,22.630008544921875,0.19181154668331146,-0.6120865345001221,0.017104214057326317
1770952059436979200,22.648979248046874,0.1954767256975174,-0.6120865345001221,0.0256563201546669
1770952059455949600,22.667949462890626,0.1954767256975174,-0.6133082509040833,0.034208428114652634
1770952059474920000,22.686919921875,0.19669845700263977,-0.6181951761245728,0.024434590712189674
1770952059493890300,22.705890380859376,0.19792018830776215,-0.6206386089324951,0.004886918235570192
1770952059512860700,22.724860595703124,0.19792018830776215,-0.6181951761245728,0.006108647678047419
1770952059531831300,22.743831298828123,0.19792018830776215,-0.6181951761245728,-0.009773836471140385
1770952059550801700,22.7628017578125,0.19914191961288452,-0.6059778332710266,-0.014660755172371864
1770952059569772000,22.78177197265625,0.20769402384757996,-0.6255255341529846,0.009773836471140385
1770952059588742400,22.800742431640625,0.20891575515270233,-0.6108647584915161,0.018325943499803543
1770952059607712800,22.819712646484376,0.21868959069252014,-0.6120865345001221,0.03909534588456154
1770952059626683400,22.838683349609376,0.22724169492721558,-0.6010909676551819,0.0256563201546669
1770952059645653800,22.85765380859375,0.23212862014770508,-0.5790998339653015,0.021991131827235222
1770952059664624000,22.8766240234375,0.2516762912273407,-0.6108647584915161,0.0256563201546669
1770952059683594500,22.895594482421874,0.2528980076313019,-0.6194168925285339,0.01588248461484909
1770952059702564900,22.91456494140625,0.24801109731197357,-0.5962040424346924,0.003665188793092966
1770952059721535200,22.93353515625,0.26389357447624207,-0.6010909676551819,0.030543239787220955
1770952059740505600,22.952505615234376,0.25534147024154663,-0.6059778332710266,-0.006108647678047419
1770952059759476200,22.971476318359375,0.26389357447624207,-0.5986474752426147,0.012217295356094837
1770952059778446600,22.990446533203126,0.28588470816612244,-0.6120865345001221,0.05864302068948746
1770952059797417000,23.0094169921875,0.29077163338661194,-0.6047561168670654,0.06475166976451874
1770952059816387300,23.02838720703125,0.27977606654167175,-0.5827649831771851,0.034208428114652634
1770952059835357700,23.047357666015625,0.29077163338661194,-0.6010909676551819,0.043982263654470444
1770952059854328000,23.066328125,0.2932150959968567,-0.6084213256835938,0.034208428114652634
1770952059882783700,23.09478369140625,0.2919933497905731,-0.6035344004631042,0.04764745384454727
1770952059901754000,23.113754150390626,0.28588470816612244,-0.6071996092796326,0.05253437161445618
1770952059920724500,23.132724365234374,0.2761108875274658,-0.6108647584915161,0.05864302068948746
1770952059939694800,23.15169482421875,0.2663370370864868,-0.6120865345001221,0.056199558079242706
1770952059958665500,23.17066552734375,0.25534147024154663,-0.6133082509040833,0.043982263654470444
1770952059977635800,23.1896357421875,0.23945899307727814,-0.6206386089324951,0.018325943499803543
1770952059996606200,23.208606201171875,0.2309068888425827,-0.6194168925285339,0.012217295356094837
1770952060015576600,23.22757666015625,0.235793799161911,-0.6352993845939636,0.01954767294228077
1770952060034547000,23.246546875,0.235793799161911,-0.627968966960907,0.023212861269712448
1770952060063002600,23.275002685546873,0.2406807243824005,-0.6304124593734741,0.020769402384757996
1770952060081972700,23.29397265625,0.24312418699264526,-0.6328558921813965,0.04886918142437935
1770952060100943400,23.312943359375,0.24312418699264526,-0.6414080262184143,0.0513126403093338
1770952060119913700,23.331913818359375,0.2309068888425827,-0.6414080262184143,0.012217295356094837
1770952060138884000,23.350884033203126,0.24556763470172882,-0.6438514590263367,0.03543015569448471
1770952060157854500,23.3698544921875,0.24801109731197357,-0.6536253094673157,0.020769402384757996
1770952060176824800,23.388824951171873,0.23945899307727814,-0.6401863098144531,0.017104214057326317
1770952060195795200,23.407795166015624,0.24923282861709595,-0.637742817401886,0.046425722539424896
1770952060214765600,23.426765625,0.25411975383758545,-0.6450732350349426,0.05864302068948746
1770952060233736000,23.44573583984375,0.24434591829776764,-0.6426297426223755,0.04764745384454727
1770952060252706300,23.464706298828126,0.2406807243824005,-0.637742817401886,0.040317077189683914
1770952060271676700,23.4836767578125,0.23212862014770508,-0.6340776681900024,0.0513126403093338
1770952060290647000,23.50264697265625,0.23823726177215576,-0.6389645338058472,0.07941242307424545
1770952060309617700,23.52161767578125,0.24434591829776764,-0.6462949514389038,0.08429934084415436
1770952060328587800,23.540587890625,0.2467893660068512,-0.6633991599082947,0.08552107214927673
1770952060357043500,23.56904345703125,0.24434591829776764,-0.667064368724823,0.06352993845939636
1770952060376013800,23.588013916015626,0.23823726177215576,-0.6633991599082947,0.050090912729501724
1770952060394984200,23.606984130859374,0.2467893660068512,-0.6695078015327454,0.059864748269319534
1770952060413954600,23.62595458984375,0.24923282861709595,-0.6695078015327454,0.08429934084415436
1770952060432925000,23.644925048828124,0.2528980076313019,-0.6609556674957275,0.056199558079242706
1770952060451895300,23.663895263671876,0.2614501118659973,-0.657290518283844,0.09285144507884979
1770952060470865700,23.68286572265625,0.2577849328517914,-0.657290518283844,0.07452550530433655
1770952060489836000,23.7018359375,0.2712239623069763,-0.6560688018798828,0.07086031138896942
1770952060508806400,23.720806396484374,0.25900667905807495,-0.665842592716217,0.01588248461484909
1770952060527776800,23.73977685546875,0.26878049969673157,-0.6560688018798828,0.028099779039621353
1770952060556232400,23.768232421875,0.27366742491722107,-0.665842592716217,0.050090912729501724
1770952060575202800,23.787202880859375,0.27366742491722107,-0.6548470258712769,0.0513126403093338
1770952060594173200,23.806173095703127,0.27488914132118225,-0.6560688018798828,0.04520399495959282
1770952060613143600,23.8251435546875,0.27855435013771057,-0.6548470258712769,0.03543015569448471
1770952060632114000,23.844114013671874,0.277332603931427,-0.6511818766593933,0.024434590712189674
1770952060651084300,23.863084228515625,0.2822195291519165,-0.6536253094673157,0.04520399495959282
1770952060670054700,23.8820546875,0.2834412455558777,-0.6609556674957275,0.03176496922969818
