time,seconds_elapsed,z,y,x
1770952036930238700,0.14223876953125,0.05589412897825241,0.4563159942626953,-0.15989385545253754
1770952036958694700,0.170694580078125,0.005803215317428112,-0.20280711352825165,-0.125074565410614
1770952036977665500,0.18966552734375,0.003359756199643016,-0.1844811588525772,-0.1262962967157364
1770952036996636200,0.20863623046875,-0.032070402055978775,0.023823726922273636,-0.08842267841100693
1770952037015606800,0.227606689453125,-0.007024944759905338,0.19914191961288452,-0.0487164668738842
1770952037034577400,0.246577392578125,0.19761475920677185,-0.20830489695072174,-0.07498364895582199
1770952037053548300,0.26554833984375,0.24037529528141022,-0.5723803043365479,0.04718930274248123
1770952037072519000,0.284518798828125,0.03817904740571976,-0.6554579138755798,0.10705405473709106
1770952037091489500,0.303489501953125,-0.06627883017063141,-0.43982264399528503,0.058795735239982605
1770952037110460400,0.32246044921875,0.022296564653515816,-0.06780599057674408,0.0019853105768561363
1770952037129431000,0.34143115234375,0.05955931544303894,-0.03237583488225937,-0.05787943676114082
1770952037148401700,0.360401611328125,0.028405211865901947,-0.4831940531730652,0.06979130208492279
1770952037167372300,0.379372314453125,-0.014966187067329884,-1.0207550525665283,0.22434009611606598
1770952037186343200,0.39834326171875,-0.061391908675432205,-1.1441497802734375,0.28237223625183105
1770952037205313800,0.417313720703125,-0.06505709886550903,-0.8185588121414185,0.212733656167984
1770952037224284700,0.43628466796875,0.007024944759905338,-0.430659681558609,0.13454297184944153
1770952037243255300,0.45525537109375,0.2611446976661682,0.07513637095689774,0.2176205813884735
1770952037262226000,0.474225830078125,0.21838416159152985,0.185092031955719,0.2799287736415863
1770952037281196800,0.49319677734375,0.16584978997707367,-0.4874700903892517,0.38499751687049866
1770952037300167700,0.512167724609375,0.24526220560073853,-1.3878847360610962,0.3837758004665375
1770952037319138300,0.53113818359375,0.2977965772151947,-1.737910270690918,0.356286883354187
1770952037338109000,0.55010888671875,0.3222311735153198,-1.0030399560928345,0.3935496211051941
1770952037357079800,0.569079833984375,-0.04367683082818985,-0.56382817029953,0.6360629796981812
1770952037376050700,0.58805078125,-0.1444695144891739,-0.3384190797805786,0.8571959733963013
1770952037395021300,0.607021240234375,0.1340848207473755,-0.13988803327083588,0.827874481678009
1770952037413992200,0.6259921875,0.323452889919281,-0.28527384996414185,0.7197514176368713
1770952037432962800,0.644962890625,0.3277289569377899,-1.065959095954895,0.7832813858985901
1770952037451933700,0.66393359375,0.3075704276561737,-1.6701042652130127,0.726470947265625
1770952037470904600,0.682904541015625,0.1640172004699707,-1.284037709236145,0.5670352578163147
1770952037489875200,0.701875244140625,-0.00946840364485979,-0.5943714380264282,0.4454731345176697
1770952037508846000,0.72084619140625,0.07788526266813278,-0.32559093832969666,0.3355174660682678
1770952037527816700,0.739816650390625,0.189673513174057,-0.40927940607070923,0.14370593428611755
1770952037546787600,0.75878759765625,0.07788526266813278,-0.39339691400527954,0.06979130208492279
1770952037565758500,0.777758544921875,0.11514800786972046,-0.3610210716724396,0.010537417605519295
1770952037584729000,0.79672900390625,0.09926552325487137,-0.40927940607070923,-0.024892739951610565
1770952037603700000,0.815699951171875,-0.05100720748305321,-0.18387030065059662,0.006872228812426329
1770952037622670800,0.8346708984375,-0.08093958348035812,0.13500112295150757,-0.04566214233636856
1770952037641641500,0.853641357421875,-0.03634645417332649,0.08857539296150208,-0.1311832070350647
1770952037660612400,0.8726123046875,-0.038789913058280945,-0.19120067358016968,-0.09819651395082474
1770952037679583200,0.891583251953125,-0.0027488914784044027,-0.2987128794193268,0.014202605932950974
1770952037698554000,0.91055419921875,0.007024944759905338,-0.19792018830776215,0.039248060435056686
1770952037717525000,0.92952490234375,-0.041844237595796585,-0.10506874322891235,0.02153298258781433
1770952037736495600,0.94849560546875,-0.02412915788590908,-0.07880155742168427,0.020311253145337105
1770952037755466500,0.967466552734375,0.051618073135614395,-0.11239911615848541,0.0062613640911877155
1770952037774437400,0.986437255859375,0.20372340083122253,-0.3127627670764923,-0.09453132748603821
1770952037793408300,1.005408203125,0.24404047429561615,-0.2926042377948761,-0.2838993966579437
1770952037812379100,1.024379150390625,0.25503605604171753,-0.16187916696071625,-0.3981311321258545
1770952037831349800,1.043349853515625,0.323452889919281,-0.07269290834665298,-0.2600756883621216
1770952037850320600,1.062320556640625,0.3484983444213867,0.039706211537122726,-0.2582430839538574
1770952037869291800,1.081291748046875,0.5317577719688416,0.16187916696071625,-0.4653262495994568
1770952037888262400,1.100262451171875,0.7632755637168884,-0.014660755172371864,-0.6290380358695984
1770952037907233300,1.1192333984375,0.8426879644393921,-0.5332849621772766,-0.4231765866279602
1770952037926204200,1.1382041015625,0.6527090072631836,-0.5345066785812378,-0.07620538026094437
1770952037945175000,1.157175048828125,0.528092622756958,0.06841685622930527,-0.1256854236125946
1770952037964146000,1.17614599609375,1.0638209581375122,0.7806851863861084,-0.6455313563346863
1770952037983116800,1.19511669921875,1.3295471668243408,1.342680811882019,-1.2735003232955933
1770952038002087700,1.214087646484375,1.2360849380493164,1.194240689277649,-1.2692242860794067
1770952038021058600,1.23305859375,0.9862411618232727,1.8466442823410034,-0.8483384847640991
1770952038040029400,1.252029541015625,0.5506945848464966,2.3457207679748535,-0.37919431924819946
1770952038059000300,1.271000244140625,0.7095194458961487,1.5015056133270264,0.15836669504642487
1770952038077971200,1.28997119140625,1.647196888923645,0.6505709886550903,-0.15989385545253754
1770952038096942000,1.308942138671875,2.3368632793426514,-0.4214966893196106,0.22617268562316895
1770952038115913000,1.327912841796875,2.967275619506836,-1.4312561750411987,1.1039854288101196
1770952038134883800,1.3468837890625,3.5695884227752686,-2.6242752075195312,1.4301871061325073
1770952038153855000,1.36585498046875,3.922668218612671,-3.9376344680786133,1.4185807704925537
1770952038172825600,1.38482568359375,4.528645992279053,-4.53261661529541,1.7209588289260864
1770952038191796700,1.403796630859375,5.165778160095215,-5.202735424041748,1.9860740900039673
1770952038210767600,1.422767578125,5.859109401702881,-3.121519088745117,2.515083074569702
1770952038229738500,1.441738525390625,6.796175956726074,-3.2223117351531982,1.7594432830810547
1770952038248709400,1.46070947265625,6.879864692687988,-2.690859317779541,0.8846849203109741
1770952038267680500,1.479680419921875,6.753415584564209,-1.0262528657913208,0.4839576184749603
1770952038286651100,1.498651123046875,6.685609340667725,0.574212908744812,0.15958842635154724
1770952038305622300,1.517622314453125,6.473639488220215,2.0573925971984863,-0.1049160286784172
1770952038334078700,1.54607861328125,-0.9752455949783325,4.4220499992370605,1.180343508720398
1770952038353049600,1.565049560546875,-1.0766491889953613,3.2119269371032715,1.0661118030548096
1770952038372020500,1.5840205078125,-0.9031635522842407,4.946783065795898,0.378888875246048
1770952038390991400,1.602991455078125,-0.8390227556228638,4.176482677459717,-0.17883066833019257
1770952038409962500,1.62196240234375,-0.610559344291687,1.7024801969528198,-0.5471821427345276
1770952038428933400,1.640933349609375,0.6759218573570251,-0.6524035930633545,-1.310152292251587
1770952038447904300,1.659904296875,3.5054476261138916,-3.8099637031555176,-2.3144140243530273
1770952038466875400,1.67887548828125,4.7222900390625,-2.824638843536377,-2.139706611633301
1770952038485846300,1.69784619140625,5.203651428222656,-0.03237583488225937,-2.550818681716919
1770952038504817200,1.716817138671875,5.213425636291504,1.05496346950531,-3.565464973449707
1770952038523788300,1.735788330078125,4.509098529815674,0.5815432667732239,-4.133569240570068
1770952038542759200,1.75475927734375,3.0918920040130615,1.1044435501098633,-4.183049201965332
1770952038561730000,1.77372998046875,0.9966259002685547,1.2663227319717407,-3.1665701866149902
1770952038580701200,1.792701171875,0.8384119272232056,-0.2577849328517914,-1.7292054891586304
1770952038599672000,1.811672119140625,1.7424918413162231,-1.1337649822235107,0.011759147047996521
1770952038618643000,1.830642822265625,2.623969554901123,-0.5534434914588928,0.37400195002555847
1770952038637614000,1.849614013671875,2.7956225872039795,1.0012073516845703,-0.7701478004455566
1770952038656585000,1.8685849609375,2.425438642501831,0.9859357476234436,-1.4561488628387451
1770952038675556000,1.88755615234375,2.1969752311706543,-0.01893680728971958,-0.9308052062988281
1770952038694527000,1.90652685546875,2.134666919708252,-0.32559093832969666,-0.6033816933631897
1770952038713498000,1.925498046875,1.867719054222107,-0.48013970255851746,-0.7328850030899048
1770952038732469000,1.944468994140625,1.600771188735962,-0.9309579133987427,-0.7225003242492676
1770952038751440000,1.96343994140625,1.4175117015838623,-0.8814778923988342,-0.577725350856781
1770952038770411000,1.982410888671875,1.1853830814361572,-0.2364046722650528,-0.5465712547302246
1770952038789382000,2.0013818359375,1.1615593433380127,-0.143553227186203,-0.4647153913974762
1770952038808353000,2.02035302734375,1.1261292695999146,-0.10751219838857651,-0.6363683938980103
1770952038827324200,2.03932421875,0.1078176349401474,1.1520910263061523,-0.16905683279037476
1770952038846295000,2.058294921875,-0.4938841760158539,0.8112284541130066,0.3452913165092468
1770952038865266000,2.077265869140625,-0.4932733178138733,0.2883281707763672,0.4326449930667877
1770952038884237000,2.096237060546875,0.1646280586719513,-0.1081230640411377,0.09666935354471207
1770952038903208200,2.115208251953125,0.5103775262832642,0.5467239618301392,-0.1256854236125946
1770952038922179000,2.134178955078125,-0.013133592903614044,0.5216785073280334,-0.44089165329933167
1770952038941150200,2.153150146484375,-0.11759147047996521,-0.1288924664258957,-1.382845163345337
1770952038960121300,2.172121337890625,0.22693626582622528,0.21197007596492767,-1.473863959312439
1770952038979092200,2.19109228515625,0.6600393652915955,-0.6499601006507874,-0.8019127249717712
1770952038998063000,2.21006298828125,0.4627300798892975,-1.2901464700698853,-0.8941532969474792
1770952039017034200,2.2290341796875,-0.1902843713760376,-0.8093958497047424,-1.049312949180603
1770952039045491000,2.257490966796875,-1.2434152364730835,0.07757982611656189,-0.6076577305793762
1770952039064461800,2.2764619140625,-1.1157444715499878,0.3225366175174713,0.3422369956970215
1770952039083433000,2.295432861328125,-0.40897396206855774,-0.5503891706466675,0.9915862679481506
1770952039102403800,2.31440380859375,0.383928507566452,0.5723803043365479,1.254868984222412
1770952039121375000,2.333375,0.7296779751777649,1.7708970308303833,0.9182825088500977
1770952039140346000,2.35234619140625,0.8139773011207581,1.285259485244751,0.43020153045654297
1770952039159317200,2.371317138671875,0.6154462695121765,0.20830489695072174,0.39110618829727173
1770952039178288000,2.3902880859375,0.44501498341560364,-0.6908880472183228,0.1052214577794075
1770952039197259300,2.40925927734375,0.08582650125026703,0.9040798544883728,0.03130681812763214
1770952039216230400,2.42823046875,0.5042688846588135,-1.043357014656067,-0.4451677203178406
1770952039235201500,2.447201416015625,0.8249728679656982,-0.5626064538955688,-0.5856665968894958
1770952039254172400,2.46617236328125,1.321605920791626,-1.3023637533187866,0.2597702443599701
1770952039273143600,2.4851435546875,0.20372340083122253,-1.7568471431732178,0.33429574966430664
1770952039292114700,2.50411474609375,0.795040488243103,0.08796452730894089,0.32268932461738586
1770952039311085800,2.5230859375,0.9361502528190613,0.2706131041049957,0.2383899837732315
1770952039330056700,2.542056640625,0.6814196705818176,-0.5821541547775269,0.407599538564682
1770952039349027800,2.56102783203125,0.36804601550102234,0.009773836471140385,0.11743875592947006
1770952039367999000,2.5799990234375,0.1029307171702385,-0.036651886999607086,0.030695954337716103
1770952039386970000,2.59897021484375,-0.03756818547844887,-0.046425722539424896,0.11133010685443878
1770952039405941200,2.617941162109375,-0.05222893878817558,-0.09040798991918564,0.3013090491294861
1770952039424912100,2.636912109375,-0.04306596517562866,-0.1081230640411377,0.46624255180358887
1770952039443883300,2.65588330078125,-0.05406153202056885,-0.20952661335468292,0.6812669634819031
1770952039462854400,2.6748544921875,-0.09621120244264603,-0.19792018830776215,0.8773545622825623
1770952039481825500,2.693825439453125,-0.19089524447917938,-0.13683371245861053,1.0642791986465454
1770952039500796700,2.712796630859375,-0.27397283911705017,0.2834412455558777,1.355050802230835
1770952039519767800,2.731767822265625,-0.3741546869277954,0.04825831577181816,1.6507093906402588
1770952039538739000,2.750739013671875,0.1951712965965271,2.4825544357299805,1.3025164604187012
1770952039557709800,2.769709716796875,-0.07910698652267456,-0.9779945015907288,0.5254964232444763
1770952039576681000,2.788680908203125,0.03756818547844887,-0.5479456782341003,0.346513032913208
1770952039595652000,2.807652099609375,0.004581485874950886,0,-0.08842267841100693
1770952039614623200,2.826623291015625,0.022296564653515816,-0.049480047076940536,-0.03711003437638283
1770952039633594400,2.845594482421875,0.023518294095993042,-0.04825831577181816,-0.022449281066656113
1770952039652565500,2.8645654296875,0.02779434807598591,-0.049480047076940536,0.0013744457392022014
1770952039671536600,2.88353662109375,0.0204639695584774,-0.0409279391169548,0.0032070400193333626
1770952039690507800,2.9025078125,0.02107483521103859,-0.0360410213470459,0.02764163166284561
1770952039709479000,2.92147900390625,0.016187917441129684,-0.030543239787220955,0.02458730712532997
1770952039728450000,2.940449951171875,0.010079269297420979,-0.03176496922969818,0.0019853105768561363
1770952039747421000,2.9594208984375,0.01435532234609127,-0.03543015569448471,0.020311253145337105
1770952039766392300,2.978392333984375,0.013744457624852657,-0.04581485688686371,-0.002901607658714056
1770952039785363500,2.997363525390625,0.013133592903614044,-0.04520399495959282,0.006872228812426329
1770952039804334600,3.01633447265625,0.006414080038666725,-0.03909534588456154,0.009315688163042068
1770952039823305700,3.0353056640625,-0.0021380267571657896,-0.047036588191986084,-0.02611446939408779
1770952039842276900,3.05427685546875,-0.003970621153712273,-0.05070177838206291,-0.02916879393160343
1770952039861248000,3.073248046875,-0.007024944759905338,-0.040317077189683914,-0.02611446939408779
1770952039880219100,3.09221923828125,-0.012522728182375431,-0.04153880476951599,-0.021838415414094925
1770952039899190300,3.111190185546875,-0.015577051788568497,-0.043982263654470444,-0.005345067009329796
1770952039918161400,3.130161376953125,-0.013133592903614044,-0.04276053607463837,-0.003512472379952669
1770952039937132500,3.149132568359375,-0.010690134018659592,-0.028099779039621353,-0.005345067009329796
1770952039956103700,3.168103759765625,-0.0027488914784044027,-0.03176496922969818,-0.016340631991624832
1770952039975074800,3.18707470703125,0.003359756199643016,-0.039706211537122726,-0.040775224566459656
1770952039994046000,3.2060458984375,-0.003359756199643016,-0.02932151034474373,-0.0102319847792387
1770952040013017000,3.22501708984375,-0.005192350596189499,-0.031154103577136993,-0.007788525894284248
1770952040031988200,3.24398828125,0.003970621153712273,-0.036651886999607086,0.008093958720564842
1770952040050959600,3.262959716796875,0.0027488914784044027,-0.023823726922273636,0.017256930470466614
1770952040069930800,3.2819306640625,0.015577051788568497,-0.01649334840476513,0.009926552884280682
1770952040088902000,3.30090185546875,0.035735588520765305,-0.03237583488225937,0.007483093533664942
1770952040107873000,3.319873046875,0.019242240116000175,-0.014049889519810677,-0.012675444595515728
1770952040126844200,3.33884423828125,0.013133592903614044,-0.01282816007733345,0.0013744457392022014
1770952040145815300,3.357815185546875,0.012522728182375431,-0.01954767294228077,0.020922118797898293
1770952040164786400,3.376786376953125,0.006414080038666725,-0.020158538594841957,0.008704823441803455
1770952040183757800,3.3957578125,0.0015271619195118546,-0.01649334840476513,-0.008399390615522861
1770952040202729000,3.41472900390625,0.006414080038666725,-0.02260199747979641,0.02153298258781433
1770952040221700000,3.4337001953125,0.004581485874950886,-0.010995565913617611,0.04718930274248123
1770952040240671200,3.452671142578125,0.01435532234609127,-0.018325943499803543,0.04230238497257233
1770952040259642400,3.471642333984375,0.019853105768561363,-0.014660755172371864,0.026419902220368385
1770952040278613800,3.49061376953125,0.025961752980947495,-0.007330377586185932,0.028863361105322838
1770952040297585000,3.5095849609375,0.026572618633508682,-0.01588248461484909,-0.03222311660647392
1770952040316556000,3.52855615234375,0.022296564653515816,-0.011606430634856224,-0.040775224566459656
1770952040335527200,3.547527099609375,0.018631376326084137,-0.000610864779446274,-0.013897174037992954
1770952040354498300,3.566498291015625,0.012522728182375431,-0.014660755172371864,-0.013897174037992954
1770952040373469700,3.5854697265625,0.012522728182375431,-0.012217295356094837,-0.008399390615522861
1770952040392440800,3.60444091796875,0.007635809946805239,-0.0054977829568088055,-0.01511890348047018
1770952040411412000,3.623411865234375,0.003970621153712273,-0.012217295356094837,-0.03894263133406639
1770952040430383000,3.642383056640625,0.003970621153712273,-0.013439024798572063,-0.02306014485657215
1770952040449354500,3.6613544921875,0.007635809946805239,-0.006719512399286032,-0.002290742937475443
1770952040468325600,3.68032568359375,-0.0009162971982732415,-0.01954767294228077,-0.017562363296747208
1770952040487296800,3.699296875,-0.007024944759905338,-0.01954767294228077,-0.02611446939408779
1770952040506268200,3.71826806640625,-0.0021380267571657896,-0.024434590712189674,-0.022449281066656113
1770952040525239300,3.7372392578125,0.0027488914784044027,-0.030543239787220955,-0.04260781779885292
1770952040544210400,3.75621044921875,0.010690134018659592,-0.014049889519810677,0.0025961752980947495
1770952040563181600,3.775181640625,0.005192350596189499,-0.004886918235570192,-0.003512472379952669
1770952040582153000,3.794153076171875,0.016798781231045723,-0.01282816007733345,0.017867794260382652
1770952040601124000,3.8131240234375,0.016187917441129684,-0.003665188793092966,0.02825249545276165
1770952040620095500,3.832095458984375,0.011911863461136818,0.009162971749901772,0.0154243353754282
1770952040639066600,3.851066650390625,0.01802051067352295,-0.001221729558892548,0.016646064817905426
1770952040658037800,3.870037841796875,0.02107483521103859,0.000610864779446274,0.02153298258781433
1770952040677009200,3.889009033203125,0.01802051067352295,0.011606430634856224,0.011148282326757908
1770952040695980300,3.907980224609375,0.01802051067352295,0.000610864779446274,0.012370011769235134
1770952040714951400,3.926951416015625,0.00946840364485979,-0.009773836471140385,-0.002901607658714056
1770952040733922800,3.9459228515625,0.003359756199643016,-0.01893680728971958,0.009315688163042068
1770952040752894000,3.96489404296875,-0.0027488914784044027,-0.006719512399286032,0.033139415085315704
1770952040771865000,3.983864990234375,-0.01740964688360691,-0.009773836471140385,-0.009621120058000088
1770952040790836200,4.002836181640625,-0.0009162971982732415,-0.02626718580722809,0.0038179049734026194
1770952040809807600,4.0218076171875,-0.014966187067329884,-0.014660755172371864,-0.028557928279042244
1770952040828778800,4.04077880859375,-0.003359756199643016,-0.004276053514331579,0.02519817277789116
1770952040847750100,4.059750244140625,-0.011911863461136818,-0.0054977829568088055,0.012980876490473747
1770952040866721300,4.07872119140625,-0.00946840364485979,-0.007330377586185932,0.016035201027989388
1770952040885692700,4.097692626953125,-0.008857538923621178,-0.006719512399286032,0.02458730712532997
1770952040904663800,4.116663818359375,-0.00946840364485979,-0.006719512399286032,0.006872228812426329
1770952040923635200,4.13563525390625,-0.005803215317428112,-0.010995565913617611,0.006872228812426329
1770952040942606300,4.1546064453125,-0.008246674202382565,-0.008552107028663158,-0.002901607658714056
1770952040961577500,4.173577392578125,-0.008246674202382565,-0.012217295356094837,-0.011453714221715927
1770952040980548900,4.192548828125,-0.013133592903614044,-0.01649334840476513,-0.03283398225903511
1770952040999520000,4.21152001953125,-0.02107483521103859,-0.020158538594841957,-0.04321868345141411
1770952041018491400,4.230491455078125,-0.023518294095993042,-0.014660755172371864,-0.018173227086663246
1770952041037462500,4.249462646484375,-0.026572618633508682,-0.020158538594841957,-0.021838415414094925
1770952041056434000,4.268433837890625,-0.029016077518463135,-0.011606430634856224,0.0019853105768561363
1770952041075405000,4.287405029296875,-0.032681263983249664,-0.014049889519810677,0.004428769461810589
1770952041094376400,4.30637646484375,-0.029016077518463135,-0.021991131827235222,0.004428769461810589
1770952041113347600,4.32534765625,-0.02107483521103859,-0.01893680728971958,0.016035201027989388
1770952041132318700,4.344318603515625,-0.01740964688360691,-0.011606430634856224,-0.01511890348047018
1770952041151290000,4.3632900390625,-0.010079269297420979,-0.023823726922273636,-0.02977965772151947
1770952041170261200,4.38226123046875,-0.007024944759905338,-0.017104214057326317,-0.031612250953912735
1770952041189232600,4.401232666015625,-0.004581485874950886,-0.0054977829568088055,-0.04321868345141411
1770952041208203800,4.420203857421875,0.01435532234609127,-0.002443459117785096,-0.03711003437638283
1770952041227175200,4.439175048828125,0.01802051067352295,0.009162971749901772,-0.046883873641490936
1770952041246146600,4.458146484375,0.03451386094093323,0,-0.027336198836565018
1770952041265117700,4.47711767578125,0.041844237595796585,0.01282816007733345,0.02825249545276165
1770952041284088800,4.4960888671875,0.05589412897825241,-0.001221729558892548,0.036804601550102234
1770952041303060200,4.515060302734375,0.05833758786320686,0.021380268037319183,0.03252854943275452
1770952041322031400,4.53403125,0.054672397673130035,0.024434590712189674,0.0062613640911877155
1770952041341002800,4.553002685546875,0.06383536756038666,0.013439024798572063,-0.00045814859913662076
1770952041359974000,4.571973876953125,0.06627883017063141,0.0030543238390237093,0.0025961752980947495
1770952041378945300,4.5909453125,0.06017018109560013,0.01893680728971958,0.0007635809597559273
1770952041397916700,4.609916748046875,0.057726722210645676,0.012217295356094837,-0.011453714221715927
1770952041416887800,4.6288876953125,0.05528326332569122,0.01282816007733345,-0.0102319847792387
1770952041435859000,4.64785888671875,0.04734202101826668,0.023212861269712448,-0.021838415414094925
1770952041454830300,4.666830322265625,0.05100720748305321,0.018325943499803543,-0.011453714221715927
1770952041473801700,4.6858017578125,0.04734202101826668,0.011606430634856224,0.012370011769235134
1770952041492772900,4.70477294921875,0.04306596517562866,0.010995565913617611,0.0062613640911877155
1770952041521229800,4.733229736328125,0.04673115536570549,0.004276053514331579,0.006872228812426329
1770952041540201200,4.752201171875,0.0308486707508564,0.000610864779446274,0.0007635809597559273
1770952041578143700,4.790143798828125,-0.0021380267571657896,-0.015271619893610477,-0.04505127668380737
1770952041597115000,4.809114990234375,-0.011300998739898205,-0.014049889519810677,-0.03588830679655075
1770952041616086300,4.828086181640625,-0.0204639695584774,-0.009162971749901772,-0.04993819445371628
1770952041635057400,4.847057373046875,-0.02107483521103859,-0.01588248461484909,-0.05482511222362518
1770952041654028800,4.86602880859375,-0.025961752980947495,-0.012217295356094837,-0.034666575491428375
1770952041673000200,4.885000244140625,-0.03756818547844887,-0.011606430634856224,0.01359174121171236
1770952041691971300,4.903971435546875,-0.035735588520765305,-0.008552107028663158,0.04046979174017906
1770952041710942700,4.922942626953125,-0.048563748598098755,-0.033597562462091446,0.039858926087617874
1770952041729913900,4.941913818359375,-0.04245510324835777,-0.039706211537122726,0.04108065739274025
1770952041748885200,4.96088525390625,-0.054672397673130035,-0.02932151034474373,-0.0010690133785828948
1770952041767856400,4.9798564453125,-0.05345066636800766,-0.02871064469218254,-0.0102319847792387
1770952041786827800,4.998827880859375,-0.0461202897131443,-0.03237583488225937,0.012370011769235134
1770952041805799200,5.017799072265625,-0.05100720748305321,-0.01893680728971958,0.008704823441803455
1770952041824770300,5.036770263671875,-0.035124726593494415,-0.020158538594841957,-0.0102319847792387
1770952041843741700,5.05574169921875,-0.025961752980947495,-0.02626718580722809,-0.027336198836565018
1770952041862712800,5.074712890625,-0.029626941308379173,-0.012217295356094837,-0.003512472379952669
1770952041881684200,5.093684326171875,-0.02412915788590908,0.001832594396546483,0.012980876490473747
1770952041900655600,5.112655517578125,0.0009162971982732415,0.001832594396546483,0.022754713892936707
1770952041919626800,5.131626708984375,0.010079269297420979,-0.003665188793092966,0.023365577682852745
1770952041938598100,5.15059814453125,0.010690134018659592,-0.004276053514331579,0.017867794260382652
1770952041957569300,5.1695693359375,0.010690134018659592,-0.009162971749901772,-0.004123337101191282
1770952041976540700,5.188540771484375,0.008246674202382565,-0.0054977829568088055,-0.017562363296747208
1770952041995512000,5.207511962890625,0.015577051788568497,-0.001832594396546483,-0.016340631991624832
1770952042023968800,5.23596875,0.02718348242342472,-0.015271619893610477,-0.014508038759231567
1770952042042940200,5.254940185546875,0.00946840364485979,-0.012217295356094837,-0.016340631991624832
1770952042061911600,5.27391162109375,-0.011300998739898205,-0.014660755172371864,-0.0206166859716177
1770952042080882700,5.292882568359375,-0.006414080038666725,-0.010995565913617611,0.026419902220368385
1770952042099854000,5.31185400390625,-0.012522728182375431,-0.023823726922273636,0.049021899700164795
1770952042118825500,5.330825439453125,-0.013744457624852657,-0.023823726922273636,0.08323032408952713
1770952042137796600,5.349796630859375,-0.0204639695584774,-0.010384701192378998,0.04657844081521034
1770952042156768000,5.36876806640625,-0.02718348242342472,-0.01649334840476513,-0.01511890348047018
1770952042175739100,5.3877392578125,-0.02107483521103859,-0.026878049597144127,-0.0102319847792387
1770952042194710500,5.40671044921875,-0.010690134018659592,-0.01282816007733345,0.055741410702466965
1770952042213682000,5.425681884765625,-0.000305432389723137,0.004886918235570192,0.04230238497257233
1770952042232653300,5.4446533203125,-0.0027488914784044027,-0.0030543238390237093,0.017867794260382652
1770952042251624400,5.46362451171875,-0.014966187067329884,-0.001221729558892548,0.012370011769235134
1770952042270595800,5.482595947265625,-0.000305432389723137,-0.002443459117785096,0.02458730712532997
1770952042289567000,5.50156689453125,0.006414080038666725,0.007330377586185932,-0.013897174037992954
1770952042308538400,5.520538330078125,0.02412915788590908,0,-0.004123337101191282
1770952042327509800,5.539509765625,0.021685699000954628,0.004276053514331579,0.017256930470466614
1770952042346481200,5.558481201171875,0.022907428443431854,-0.004276053514331579,-0.01206457894295454
1770952042365452300,5.577452392578125,0.035735588520765305,-0.001221729558892548,-0.009621120058000088
1770952042384423700,5.596423583984375,0.03634645417332649,0.002443459117785096,-0.009621120058000088
1770952042403394800,5.615394775390625,0.05039634555578232,0.002443459117785096,0.006872228812426329
1770952042422366200,5.6343662109375,0.04673115536570549,0.010384701192378998,-0.004734201822429895
1770952042441337600,5.653337646484375,0.05100720748305321,0.004276053514331579,-0.001679878099821508
1770952042460308700,5.672308837890625,0.048563748598098755,0.018325943499803543,-0.00045814859913662076
1770952042479280000,5.691280029296875,0.05589412897825241,0.01282816007733345,0.04108065739274025
1770952042507737000,5.719737060546875,0.06505709886550903,0.009773836471140385,0.04230238497257233
1770952042526708500,5.73870849609375,0.04428769648075104,0.021991131827235222,-0.002290742937475443
1770952042545680000,5.757679931640625,0.04734202101826668,0.012217295356094837,-0.01511890348047018
1770952042564651000,5.776651123046875,0.048563748598098755,0.008552107028663158,-0.028557928279042244
1770952042583622400,5.795622314453125,0.0461202897131443,0.012217295356094837,-0.04932733252644539
1770952042602593800,5.81459375,0.03817904740571976,0.009162971749901772,-0.03955349326133728
1770952042621565000,5.83356494140625,0.02412915788590908,0.000610864779446274,-0.0334448479115963
1770952042640536300,5.852536376953125,0.011911863461136818,0.001221729558892548,-0.008399390615522861
1770952042659507700,5.8715078125,0.0027488914784044027,-0.011606430634856224,0.019700389355421066
1770952042678478800,5.890478759765625,-0.011300998739898205,-0.015271619893610477,0.011148282326757908
1770952042697450200,5.9094501953125,-0.032070402055978775,-0.025045456364750862,0.022754713892936707
1770952042716421600,5.928421630859375,-0.05406153202056885,-0.033597562462091446,-0.00045814859913662076
1770952042735393000,5.94739306640625,-0.054672397673130035,-0.036651886999607086,-0.01511890348047018
1770952042754364200,5.9663642578125,-0.06811141967773438,-0.03543015569448471,-0.0334448479115963
1770952042773335600,5.98533544921875,-0.06322450190782547,-0.04214967042207718,-0.019394956529140472
1770952042792307000,6.004306884765625,-0.06322450190782547,-0.031154103577136993,0.03252854943275452
1770952042811278300,6.0232783203125,-0.06322450190782547,-0.02260199747979641,0.006872228812426329
1770952042830249500,6.04224951171875,-0.06322450190782547,-0.028099779039621353,0.033139415085315704
1770952042849220900,6.061220947265625,-0.06811141967773438,-0.03481929376721382,0.03130681812763214
1770952042868192300,6.080192138671875,-0.05833758786320686,-0.0360410213470459,0.025809036567807198
1770952042887163600,6.09916357421875,-0.05222893878817558,-0.0256563201546669,0.02214384824037552
1770952042906134800,6.118134765625,-0.06017018109560013,-0.03237583488225937,-0.002290742937475443
1770952042925106200,6.137106201171875,-0.044898562133312225,-0.0360410213470459,0.011759147047996521
1770952042944077600,6.15607763671875,-0.0412333719432354,-0.0256563201546669,-0.017562363296747208
1770952042963049000,6.175049072265625,-0.02779434807598591,-0.017104214057326317,-0.031612250953912735
1770952042982020000,6.19402001953125,-0.0204639695584774,-0.025045456364750862,-0.024892739951610565
1770952043000991500,6.212991455078125,-0.025961752980947495,-0.014660755172371864,-0.0334448479115963
1770952043019963000,6.231962890625,-0.0204639695584774,-0.01954767294228077,-0.0206166859716177
1770952043038934300,6.250934326171875,-0.005192350596189499,-0.006108647678047419,-0.0102319847792387
1770952043057905400,6.269905517578125,0.015577051788568497,-0.010995565913617611,-0.018784092739224434
1770952043076876800,6.288876708984375,0.02412915788590908,-0.017104214057326317,-0.03955349326133728
1770952043095848200,6.30784814453125,0.04245510324835777,-0.000610864779446274,-0.031001387163996696
1770952043114819600,6.326819580078125,0.048563748598098755,0.010384701192378998,-0.04321868345141411
1770952043133791000,6.345791015625,0.05283980444073677,0.012217295356094837,-0.04627300798892975
1770952043152762400,6.364762451171875,0.05345066636800766,0.004886918235570192,-0.03955349326133728
1770952043171733800,6.383733642578125,0.05222893878817558,-0.001832594396546483,-0.013897174037992954
1770952043190705000,6.402704833984375,0.04367683082818985,0.017715077847242355,-0.02977965772151947
1770952043209676300,6.42167626953125,0.0412333719432354,0.001832594396546483,-0.04016435891389847
1770952043228647700,6.440647705078125,0.05222893878817558,-0.010384701192378998,0.020922118797898293
1770952043247619000,6.459619140625,0.035735588520765305,0.004276053514331579,0.006872228812426329
1770952043266590200,6.478590087890625,0.024740023538470268,-0.003665188793092966,-0.016340631991624832
1770952043285561600,6.4975615234375,0.02412915788590908,-0.0054977829568088055,0.0025961752980947495
1770952043304533000,6.516532958984375,0.0204639695584774,-0.001832594396546483,-0.007788525894284248
1770952043323504400,6.53550439453125,0.023518294095993042,-0.006719512399286032,0.012980876490473747
1770952043342475800,6.554475830078125,0.02107483521103859,-0.010995565913617611,0.019700389355421066
1770952043361447200,6.573447265625,0.0009162971982732415,0.000610864779446274,-0.01695149764418602
1770952043380418300,6.592418212890625,0.013133592903614044,-0.007941242307424545,-0.011453714221715927
1770952043399389700,6.6113896484375,0.016187917441129684,-0.02260199747979641,0.0025961752980947495
1770952043418361000,6.630361083984375,0.011911863461136818,-0.008552107028663158,0.006872228812426329
1770952043437332500,6.64933251953125,0.00946840364485979,-0.000610864779446274,-0.019394956529140472
1770952043456303900,6.668303955078125,0.01802051067352295,-0.007330377586185932,-0.012675444595515728
1770952043475275300,6.687275146484375,0.011911863461136818,-0.01282816007733345,-0.0487164668738842
1770952043494246700,6.70624658203125,0.02779434807598591,-0.021991131827235222,-0.018784092739224434
1770952043513217800,6.7252177734375,0.0308486707508564,-0.01649334840476513,-0.010842849500477314
1770952043532189200,6.744189208984375,0.014966187067329884,0.001221729558892548,-0.019394956529140472
1770952043551160600,6.76316064453125,0.013133592903614044,0.006719512399286032,0.023365577682852745
1770952043570132000,6.782132080078125,0.007635809946805239,-0.015271619893610477,0.023365577682852745
1770952043589103400,6.801103271484375,0.003359756199643016,-0.012217295356094837,0.03375028073787689
1770952043608074800,6.82007470703125,-0.006414080038666725,-0.01954767294228077,0.025809036567807198
1770952043627046100,6.839046142578125,-0.015577051788568497,-0.01893680728971958,0.03252854943275452
1770952043646017300,6.858017333984375,-0.0204639695584774,-0.03481929376721382,0.011148282326757908
1770952043664988700,6.87698876953125,-0.015577051788568497,-0.034208428114652634,0.03375028073787689
1770952043683960300,6.895960205078125,-0.029016077518463135,-0.024434590712189674,0.01847865991294384
1770952043702931500,6.914931396484375,-0.038789913058280945,-0.02871064469218254,0.020311253145337105
1770952043721902800,6.93390283203125,-0.03390299528837204,-0.021380268037319183,0.004428769461810589
1770952043740874200,6.952874267578125,-0.019242240116000175,-0.021991131827235222,0.04657844081521034
1770952043759845600,6.971845703125,-0.023518294095993042,-0.02260199747979641,0.026419902220368385
1770952043778817000,6.990817138671875,-0.032070402055978775,-0.017715077847242355,0.02519817277789116
1770952043797788400,7.009788330078125,-0.029016077518463135,-0.012217295356094837,0.007483093533664942
1770952043816759800,7.028759765625,-0.03451386094093323,-0.017715077847242355,-0.03894263133406639
1770952043835731200,7.047731201171875,-0.016187917441129684,-0.037262752652168274,0.025809036567807198
1770952043854702600,7.06670263671875,-0.03940077871084213,-0.01954767294228077,-0.030390523374080658
1770952043873673700,7.085673828125,-0.05100720748305321,-0.043371398001909256,-0.06765327602624893
1770952043892645000,7.10464501953125,-0.048563748598098755,-0.04153880476951599,-0.064598947763443
1770952043911616800,7.12361669921875,-0.047952886670827866,-0.025045456364750862,-0.04566214233636856
1770952043930588000,7.142587890625,-0.0308486707508564,-0.03787361457943916,0.0025961752980947495
1770952043949559300,7.161559326171875,-0.012522728182375431,-0.030543239787220955,0.039858926087617874
1770952043968530700,7.18053076171875,-0.015577051788568497,-0.003665188793092966,0.008093958720564842
1770952043987502000,7.199502197265625,0.010690134018659592,-0.020769402384757996,0.006872228812426329
1770952044006473500,7.218473388671875,0.032070402055978775,-0.021380268037319183,0.01908952370285988
1770952044025444900,7.23744482421875,0.04306596517562866,-0.008552107028663158,0.014813470654189587
1770952044044416300,7.256416259765625,0.04978547990322113,-0.000610864779446274,0.028863361105322838
1770952044063387600,7.2753876953125,0.05528326332569122,0.004276053514331579,0.004428769461810589
1770952044082359000,7.294359130859375,0.05283980444073677,0.01588248461484909,0.0038179049734026194
1770952044101330400,7.313330322265625,0.0668896958231926,0.018325943499803543,0.004428769461810589
1770952044120301800,7.3323017578125,0.07483093440532684,0.015271619893610477,0.02153298258781433
1770952044139273200,7.351273193359375,0.07422006875276566,0.01282816007733345,0.030695954337716103
1770952044158244600,7.37024462890625,0.06811141967773438,0.014660755172371864,0.03436114266514778
1770952044177216000,7.389216064453125,0.06383536756038666,0.015271619893610477,0.023976443335413933
1770952044196187400,7.4081875,0.0668896958231926,0.015271619893610477,0.009926552884280682
1770952044215158800,7.42715869140625,0.06750056147575378,0.01282816007733345,-0.004734201822429895
1770952044234130200,7.446130126953125,0.05833758786320686,0,-0.0102319847792387
1770952044253101600,7.4651015625,0.057726722210645676,0.01893680728971958,-0.011453714221715927
1770952044272073000,7.484072998046875,0.04917461425065994,0.010995565913617611,-0.04321868345141411
1770952044291044400,7.50304443359375,0.04734202101826668,-0.001221729558892548,-0.017562363296747208
1770952044310015700,7.522015625,0.02779434807598591,0.004886918235570192,-0.025503603741526604
1770952044328987100,7.540987060546875,0.0204639695584774,-0.001221729558892548,-0.021838415414094925
1770952044347958500,7.55995849609375,0.008857538923621178,-0.020769402384757996,-0.010842849500477314
1770952044366930000,7.578929931640625,-0.0015271619195118546,-0.028099779039621353,0.0007635809597559273
1770952044385901300,7.5979013671875,-0.013133592903614044,-0.023212861269712448,-0.01695149764418602
1770952044404872700,7.616872802734375,-0.021685699000954628,-0.029932374134659767,-0.012675444595515728
1770952044423844000,7.635843994140625,-0.02779434807598591,-0.03787361457943916,-0.0102319847792387
1770952044442815500,7.6548154296875,-0.035735588520765305,-0.039706211537122726,0.01908952370285988
1770952044471272700,7.683272705078125,-0.05528326332569122,-0.031154103577136993,-0.008399390615522861
1770952044490244000,7.702244140625,-0.05589412897825241,-0.040317077189683914,0.030085090547800064
1770952044509215500,7.721215576171875,-0.048563748598098755,-0.04459312930703163,0.05818486958742142
1770952044528187000,7.740186767578125,-0.06933315098285675,-0.0360410213470459,0.022754713892936707
1770952044547158300,7.759158203125,-0.06261363625526428,-0.039706211537122726,0.02519817277789116
1770952044566129700,7.778129638671875,-0.06200277432799339,-0.040317077189683914,0.023365577682852745
1770952044585101000,7.79710107421875,-0.06261363625526428,-0.046425722539424896,0.036193739622831345
1770952044604072400,7.816072509765625,-0.06322450190782547,-0.040317077189683914,0.04108065739274025
1770952044623043800,7.8350439453125,-0.06322450190782547,-0.036651886999607086,0.014813470654189587
1770952044642015200,7.85401513671875,-0.05100720748305321,-0.04581485688686371,0.009926552884280682
1770952044660986600,7.872986572265625,-0.051618073135614395,-0.0360410213470459,-0.007177661173045635
1770952044679958000,7.8919580078125,-0.04062250629067421,-0.04581485688686371,-0.013897174037992954
1770952044698929400,7.910929443359375,-0.024740023538470268,-0.037262752652168274,0.0013744457392022014
1770952044717900800,7.92990087890625,-0.02412915788590908,-0.033597562462091446,0.009926552884280682
1770952044736872200,7.9488720703125,-0.0021380267571657896,-0.02871064469218254,0.0007635809597559273
1770952044755843600,7.967843505859375,0.003970621153712273,-0.020158538594841957,0.006872228812426329
1770952044774815000,7.98681494140625,0.008246674202382565,-0.021991131827235222,0.009926552884280682
1770952044793786400,8.005786376953125,0.01740964688360691,-0.024434590712189674,0.0025961752980947495
1770952044812758000,8.024758056640625,0.012522728182375431,-0.030543239787220955,-0.004123337101191282
1770952044831729200,8.043729248046875,0.022907428443431854,-0.027488915249705315,0.016035201027989388
1770952044850700500,8.062700439453126,0.03329212963581085,-0.02932151034474373,0.020311253145337105
1770952044869672200,8.081672119140626,0.03695731982588768,-0.012217295356094837,0.016646064817905426
1770952044888643300,8.100643310546875,0.03756818547844887,-0.015271619893610477,-0.004123337101191282
1770952044907615000,8.119614990234375,0.0461202897131443,-0.021380268037319183,0.0025961752980947495
1770952044926586400,8.13858642578125,0.03817904740571976,-0.020158538594841957,0.004428769461810589
1770952044945557800,8.157557861328126,0.047952886670827866,-0.014660755172371864,0.009315688163042068
1770952044964529200,8.176529052734375,0.05039634555578232,-0.020769402384757996,-0.016340631991624832
1770952044983500500,8.19550048828125,0.05100720748305321,-0.020769402384757996,-0.01511890348047018
1770952045002472000,8.214471923828125,0.0565049909055233,-0.026878049597144127,-0.018784092739224434
1770952045021443300,8.233443359375,0.061391908675432205,-0.024434590712189674,-0.009621120058000088
1770952045040414700,8.252414794921876,0.06322450190782547,-0.028099779039621353,-0.0206166859716177
1770952045059386000,8.27138623046875,0.061391908675432205,-0.036651886999607086,-0.021227551624178886
1770952045078357500,8.290357421875,0.05222893878817558,-0.03787361457943916,-0.022449281066656113
1770952045097329000,8.309328857421875,0.06017018109560013,-0.03481929376721382,-0.011453714221715927
1770952045116300300,8.32830029296875,0.06505709886550903,-0.039706211537122726,-0.016340631991624832
1770952045135271700,8.347271728515626,0.06811141967773438,-0.04886918142437935,0.008704823441803455
1770952045154243300,8.366243408203125,0.05222893878817558,-0.05070177838206291,0.009926552884280682
1770952045173214500,8.38521435546875,0.04550942778587341,-0.05070177838206291,0.0001527161948615685
1770952045192186000,8.40418603515625,0.04978547990322113,-0.05925388261675835,-0.007788525894284248
1770952045211157500,8.423157470703124,0.04978547990322113,-0.06414080411195755,-0.010842849500477314
1770952045230129000,8.44212890625,0.04367683082818985,-0.06719512492418289,-0.013286309316754341
1770952045249100300,8.461100341796875,0.03695731982588768,-0.07391463965177536,0.0032070400193333626
1770952045268071700,8.48007177734375,0.03695731982588768,-0.07819069176912308,0.02214384824037552
1770952045287043000,8.49904296875,0.03390299528837204,-0.0769689604640007,0.020311253145337105
1770952045306014500,8.518014404296874,0.02779434807598591,-0.08613193035125732,0.008093958720564842
1770952045324985900,8.53698583984375,0.032070402055978775,-0.0977383628487587,0.016035201027989388
1770952045343957200,8.555957275390625,0.025961752980947495,-0.09162971377372742,0.011148282326757908
1770952045362928600,8.5749287109375,0.029016077518463135,-0.09651663154363632,0.0154243353754282
1770952045381900000,8.593900146484375,0.03451386094093323,-0.10629047453403473,0.007483093533664942
1770952045400871400,8.612871337890626,0.03940077871084213,-0.11117739230394363,0.012980876490473747
1770952045419842800,8.6318427734375,0.03390299528837204,-0.10751219838857651,-0.00045814859913662076
1770952045438814200,8.650814208984375,0.03390299528837204,-0.1178968995809555,-0.02306014485657215
1770952045457785600,8.66978564453125,0.032070402055978775,-0.12156209349632263,-0.013897174037992954
1770952045476757000,8.688757080078124,0.03451386094093323,-0.12461641430854797,-0.016340631991624832
1770952045495728600,8.707728759765626,0.04062250629067421,-0.12522727251052856,-0.005345067009329796
1770952045514699800,8.72669970703125,0.044898562133312225,-0.1185077652335167,0.019700389355421066
1770952045533671400,8.74567138671875,0.06261363625526428,-0.13072505593299866,0.02214384824037552
1770952045552642800,8.764642822265625,0.05589412897825241,-0.13500112295150757,0.028863361105322838
1770952045571614200,8.7836142578125,0.04673115536570549,-0.14049890637397766,0.036804601550102234
1770952045590585600,8.802585693359376,0.03451386094093323,-0.1588248461484909,0.033139415085315704
1770952045609557000,8.821556884765625,0.03451386094093323,-0.17531819641590118,0.023976443335413933
1770952045628528400,8.8405283203125,0.025350889191031456,-0.1594357043504715,0.014813470654189587
1770952045647499800,8.859499755859375,0.024740023538470268,-0.1649334877729416,-0.002290742937475443
1770952045666471200,8.87847119140625,0.032070402055978775,-0.1795942485332489,0.01359174121171236
1770952045685442600,8.897442626953126,0.022296564653515816,-0.1747073233127594,0.0032070400193333626
1770952045704414000,8.9164140625,0.029626941308379173,-0.17653992772102356,0.009315688163042068
1770952045723385300,8.93538525390625,0.047952886670827866,-0.185092031955719,0.011759147047996521
1770952045742356700,8.954356689453125,0.060781046748161316,-0.17837251722812653,0.03558287397027016
1770952045761328000,8.973328125,0.07360920310020447,-0.17226386070251465,0.03436114266514778
1770952045780299500,8.992299560546876,0.08093958348035812,-0.17898337543010712,0.030085090547800064
1770952045799271000,9.01127099609375,0.08032871782779694,-0.1893680840730667,0.008704823441803455
1770952045818242300,9.0302421875,0.08032871782779694,-0.1844811588525772,0.0001527161948615685
1770952045846699500,9.058699462890624,0.07849612087011337,-0.18875721096992493,0.0007635809597559273
1770952045865671000,9.0776708984375,0.07544180005788803,-0.19853104650974274,-0.014508038759231567
1770952045884642300,9.096642333984375,0.07788526266813278,-0.21135921776294708,-0.027947064489126205
1770952045903613700,9.11561376953125,0.08338304609060287,-0.20769402384757996,-0.022449281066656113
1770952045922585000,9.134585205078125,0.07788526266813278,-0.20952661335468292,-0.01206457894295454
1770952045941556200,9.15355615234375,0.07971785217523575,-0.21197007596492767,0.012370011769235134
1770952045960528000,9.17252783203125,0.06627883017063141,-0.20891575515270233,-0.005955931730568409
1770952045979499300,9.191499267578125,0.07055488228797913,-0.22357651591300964,0.008704823441803455
1770952045998470700,9.210470703125,0.08032871782779694,-0.23212862014770508,0.02458730712532997
1770952046017442000,9.229442138671875,0.08032871782779694,-0.23029601573944092,0.029474224895238876
1770952046036413400,9.248413330078124,0.07605266571044922,-0.23335035145282745,0.036193739622831345
1770952046055384800,9.267384765625,0.08093958348035812,-0.24373504519462585,0.02764163166284561
1770952046074356200,9.286356201171875,0.08155044913291931,-0.25473061203956604,0.01847865991294384
1770952046093327600,9.30532763671875,0.08826996386051178,-0.25045454502105713,0.03741546720266342
1770952046112299000,9.324299072265624,0.09621120244264603,-0.24434591829776764,0.058795735239982605
1770952046131270400,9.3432705078125,0.09987638890743256,-0.2370155304670334,0.07528908550739288
1770952046150241800,9.36224169921875,0.09010255336761475,-0.24434591829776764,0.02825249545276165
1770952046169213200,9.381213134765625,0.09621120244264603,-0.2510654330253601,0.03375028073787689
1770952046188184600,9.4001845703125,0.09498947113752365,-0.24984370172023773,0.012370011769235134
1770952046207156000,9.419156005859374,0.09682206809520721,-0.25411975383758545,0.005650499369949102
1770952046226127400,9.43812744140625,0.09926552325487137,-0.25411975383758545,0.017867794260382652
1770952046245098800,9.4570986328125,0.08826996386051178,-0.2577849328517914,-0.005345067009329796
1770952046264070100,9.476070068359375,0.08643736690282822,-0.27550002932548523,0.006872228812426329
1770952046283041500,9.49504150390625,0.08582650125026703,-0.277332603931427,-0.007788525894284248
1770952046302013000,9.514012939453124,0.08338304609060287,-0.27916520833969116,0.0019853105768561363
1770952046320984300,9.532984375,0.08155044913291931,-0.2809978127479553,0.020922118797898293
1770952046339955700,9.551955810546875,0.0772743970155716,-0.287106454372406,0.011759147047996521
1770952046358926800,9.5709267578125,0.07483093440532684,-0.28954991698265076,-0.010842849500477314
1770952046377898500,9.5898984375,0.08093958348035812,-0.2822195291519165,0.0013744457392022014
1770952046396870000,9.608869873046874,0.08155044913291931,-0.2718348205089569,0.0062613640911877155
1770952046415841000,9.627841064453126,0.08582650125026703,-0.2822195291519165,0.025809036567807198
1770952046434812400,9.6468125,0.0870482325553894,-0.2968802750110626,0.03130681812763214
1770952046453784000,9.6657841796875,0.08643736690282822,-0.30054548382759094,0.033139415085315704
1770952046472755200,9.684755126953124,0.08643736690282822,-0.28954991698265076,0.03375028073787689
1770952046491726600,9.7037265625,0.09193515032529831,-0.3035998046398163,0.023365577682852745
1770952046510698000,9.722697998046876,0.10109812021255493,-0.30970844626426697,0.014202605932950974
1770952046529669400,9.74166943359375,0.10231985151767731,-0.3023780584335327,0.022754713892936707
1770952046548640800,9.760640869140625,0.11148282140493393,-0.31093016266822815,0.05329795181751251
1770952046567612200,9.779612060546874,0.11209368705749512,-0.3243691921234131,0.06001746281981468
1770952046586583600,9.79858349609375,0.12431098520755768,-0.3243691921234131,0.06979130208492279
1770952046605555000,9.817554931640625,0.12736530601978302,-0.3133736252784729,0.07712167501449585
1770952046624526300,9.8365263671875,0.1127045527100563,-0.3237583339214325,0.01359174121171236
1770952046643497500,9.85549755859375,0.11698060482740402,-0.3426951467990875,-0.02367101050913334
1770952046662468900,9.87446875,0.11759147047996521,-0.34208428859710693,-0.03588830679655075
1770952046681440300,9.893440185546876,0.1127045527100563,-0.33536475896835327,-0.05849030241370201
1770952046700411600,9.91241162109375,0.12186752259731293,-0.35674503445625305,-0.07070759683847427
1770952046719383000,9.931383056640625,0.12247838824987411,-0.36163195967674255,-0.06826414167881012
1770952046738354400,9.9503544921875,0.10842850059270859,-0.3597993552684784,-0.07803797721862793
1770952046757325800,9.969325927734374,0.09132428467273712,-0.370184063911438,-0.08842267841100693
1770952046776297200,9.988297119140626,0.08277218043804169,-0.3842339515686035,-0.09697478264570236
1770952046795268600,10.0072685546875,0.0766635313630104,-0.3958403766155243,-0.09453132748603821
1770952046814240000,10.026239990234375,0.07605266571044922,-0.4007273018360138,-0.06643154472112656
1770952046833211100,10.045211181640624,0.06383536756038666,-0.411722868680954,-0.043829549103975296
1770952046852182500,10.0641826171875,0.05711585655808449,-0.4043924808502197,-0.03222311660647392
1770952046871154000,10.08315380859375,0.05711585655808449,-0.41416633129119873,-0.028557928279042244
1770952046890125300,10.102125244140625,0.06811141967773438,-0.4269944727420807,0.029474224895238876
1770952046909096700,10.1210966796875,0.06017018109560013,-0.4318813979625702,0.04230238497257233
1770952046928068000,10.140068115234374,0.05283980444073677,-0.4251618981361389,0.052076224237680435
1770952046947039500,10.15903955078125,0.05039634555578232,-0.43310311436653137,0.04718930274248123
1770952046966010600,10.1780107421875,0.05894844979047775,-0.4459312856197357,0.0642935186624527
1770952046984982000,10.19698193359375,0.06017018109560013,-0.43982264399528503,0.07101303339004517
1770952047003953400,10.215953369140625,0.06566796451807022,-0.4312705397605896,0.07284562289714813
1770952047022924800,10.2349248046875,0.06811141967773438,-0.430659681558609,0.0691804364323616
1770952047041896000,10.25389599609375,0.0766635313630104,-0.43371400237083435,0.09117157012224197
1770952047060867300,10.272867431640625,0.07971785217523575,-0.4361574649810791,0.09728021919727325
1770952047079838700,10.291838623046875,0.08643736690282822,-0.4373791813850403,0.09117157012224197
1770952047098810000,10.31081005859375,0.09132428467273712,-0.43493571877479553,0.09544762223958969
1770952047117781500,10.329781494140626,0.09804379940032959,-0.4367683231830597,0.08200860023498535
1770952047136752600,10.348752685546875,0.10842850059270859,-0.43982264399528503,0.07345648854970932
1770952047155724000,10.36772412109375,0.12186752259731293,-0.4373791813850403,0.061850059777498245
1770952047174695400,10.3866953125,0.11209368705749512,-0.42271843552589417,0.0025961752980947495
1770952047193666800,10.405666748046874,0.12370011955499649,-0.4269944727420807,-0.022449281066656113
1770952047212638000,10.424637939453126,0.13469567894935608,-0.4410443603992462,-0.03955349326133728
1770952047231609300,10.443609375,0.13591741025447845,-0.43921178579330444,-0.07009673118591309
1770952047250580700,10.462580810546875,0.1279761642217636,-0.4221075773239136,-0.09575305134057999
1770952047269552000,10.48155224609375,0.14141519367694855,-0.4404335021972656,-0.09636391699314117
1770952047288523300,10.500523193359374,0.13652828335762024,-0.4453204274177551,-0.10186170041561127
1770952047307494700,10.51949462890625,0.1285870373249054,-0.43982264399528503,-0.11407899856567383
1770952047326466000,10.538466064453125,0.13041962683200836,-0.43921178579330444,-0.11652245372533798
1770952047345437200,10.557437255859375,0.13041962683200836,-0.45448338985443115,-0.1366809904575348
1770952047364408600,10.57640869140625,0.13225223124027252,-0.45937031507492065,-0.12324196845293045
1770952047383380000,10.5953798828125,0.1334739476442337,-0.46547895669937134,-0.10063996911048889
1770952047402351400,10.614351318359375,0.12553271651268005,-0.46975502371788025,-0.1055268943309784
1770952047421322500,10.633322509765625,0.12736530601978302,-0.47464191913604736,-0.0896444097161293
1770952047440294000,10.6522939453125,0.12980876863002777,-0.4667007029056549,-0.06520981341600418
1770952047459265300,10.671265380859374,0.1279761642217636,-0.46425724029541016,-0.04627300798892975
1770952047478236400,10.690236328125,0.12431098520755768,-0.47525280714035034,-0.025503603741526604
1770952047497207800,10.709207763671875,0.12064579129219055,-0.47586366534233093,-0.009010255336761475
1770952047516179000,10.728178955078125,0.11453714966773987,-0.4618137776851654,0.012370011769235134
1770952047535150300,10.747150390625,0.11759147047996521,-0.4563159942626953,0.030085090547800064
1770952047554121700,10.766121826171876,0.12736530601978302,-0.46486809849739075,0.04413498193025589
1770952047573093000,10.785093017578125,0.12736530601978302,-0.4581485986709595,0.049021899700164795
1770952047592064300,10.804064208984375,0.1285870373249054,-0.4508182108402252,0.06673697382211685
1770952047611035600,10.82303564453125,0.129197895526886,-0.4514290690422058,0.08200860023498535
1770952047630006800,10.8420068359375,0.12553271651268005,-0.4526508152484894,0.09239330142736435
1770952047648978200,10.860978271484376,0.129197895526886,-0.45875945687294006,0.10827577859163284
1770952047667949600,10.879949462890625,0.12614357471466064,-0.45387253165245056,0.0948367565870285
1770952047686920700,10.898920654296875,0.12186752259731293,-0.4416552484035492,0.06062832847237587
1770952047705892000,10.91789208984375,0.12492185086011887,-0.4471530318260193,0.04230238497257233
1770952047724863200,10.93686328125,0.1334739476442337,-0.4508182108402252,0.03375028073787689
1770952047743834600,10.955834716796875,0.14141519367694855,-0.43921178579330444,0.03252854943275452
1770952047762805800,10.9748056640625,0.1487455666065216,-0.4361574649810791,0.011148282326757908
1770952047781777200,10.993777099609375,0.1591302752494812,-0.43493571877479553,0.0025961752980947495
1770952047800748500,11.01274853515625,0.16218459606170654,-0.43004879355430603,-0.018173227086663246
1770952047819719700,11.0317197265625,0.1695149689912796,-0.4324922561645508,-0.021227551624178886
1770952047838690800,11.05069091796875,0.17745621502399445,-0.42821621894836426,-0.009621120058000088
1770952047857662200,11.069662109375,0.18234314024448395,-0.4257727563381195,-0.013897174037992954
1770952047876633600,11.088633544921874,0.18295399844646454,-0.4324922561645508,-0.04810560122132301
1770952047895604700,11.107604736328126,0.18600831925868988,-0.43004879355430603,-0.0591011680662632
1770952047924061700,11.136061767578125,0.18906265497207642,-0.4355465769767761,-0.07742711156606674
1770952047943032800,11.15503271484375,0.18845178186893463,-0.43493571877479553,-0.06582067906856537
1770952047962004200,11.174004150390624,0.18295399844646454,-0.4404335021972656,-0.06887500733137131
1770952047980975400,11.192975341796876,0.1744018942117691,-0.43432486057281494,-0.053603384643793106
1770952047999946800,11.21194677734375,0.17195843160152435,-0.4318813979625702,-0.03955349326133728
1770952048018918000,11.23091796875,0.17195843160152435,-0.4459312856197357,-0.021227551624178886
1770952048037889300,11.24988916015625,0.16340632736682892,-0.4459312856197357,-0.018784092739224434
1770952048056860400,11.2688603515625,0.1640172004699707,-0.4416552484035492,0.0001527161948615685
1770952048075831600,11.28783154296875,0.17195843160152435,-0.4459312856197357,0.02519817277789116
1770952048094803000,11.306802978515625,0.15607595443725586,-0.4508182108402252,-0.005955931730568409
1770952048113774000,11.325774169921875,0.14813470840454102,-0.45387253165245056,-0.01511890348047018
1770952048132745500,11.344745361328124,0.14813470840454102,-0.4514290690422058,0.008704823441803455
1770952048151716600,11.363716552734376,0.14630211889743805,-0.45509424805641174,0.03802633285522461
1770952048170688000,11.38268798828125,0.14202606678009033,-0.45020735263824463,0.03558287397027016
1770952048189659100,11.4016591796875,0.1493564397096634,-0.4520399272441864,0.05635227635502815
1770952048208630500,11.420630615234375,0.15485422313213348,-0.45448338985443115,0.061850059777498245
1770952048227601700,11.4396015625,0.1597411334514618,-0.4520399272441864,0.05329795181751251
1770952048246572800,11.45857275390625,0.16523891687393188,-0.44959646463394165,0.049632761627435684
1770952048265544000,11.4775439453125,0.17562362551689148,-0.44898560643196106,0.07162389904260635
1770952048284515300,11.496515380859375,0.17318016290664673,-0.4459312856197357,0.05024362727999687
1770952048312972300,11.52497216796875,0.17134757339954376,-0.44837474822998047,0.03802633285522461
1770952048331943400,11.543943359375,0.17623448371887207,-0.4581485986709595,0.05085449293255806
1770952048350914600,11.56291455078125,0.1744018942117691,-0.45998117327690125,0.04230238497257233
1770952048369885700,11.5818857421875,0.1695149689912796,-0.4520399272441864,0.02153298258781433
1770952048388857000,11.600857177734374,0.168904110789299,-0.45937031507492065,0.011148282326757908
1770952048407828200,11.619828125,0.17318016290664673,-0.46547895669937134,0.01847865991294384
1770952048426799400,11.63879931640625,0.1737910360097885,-0.45937031507492065,0.026419902220368385
1770952048445770500,11.6577705078125,0.168904110789299,-0.46975502371788025,0.009315688163042068
1770952048464742000,11.676741943359374,0.16523891687393188,-0.472198486328125,-0.003512472379952669
1770952048483713000,11.695713134765626,0.16584978997707367,-0.47586366534233093,-0.0102319847792387
1770952048502684200,11.71468408203125,0.168904110789299,-0.4880809485912323,-0.01511890348047018
1770952048521655600,11.733655517578125,0.168904110789299,-0.481361448764801,-0.018173227086663246
1770952048540626700,11.752626708984375,0.1597411334514618,-0.48502662777900696,-0.03222311660647392
1770952048559597800,11.771597900390624,0.16035200655460358,-0.49541133642196655,-0.03588830679655075
1770952048578569000,11.79056884765625,0.16218459606170654,-0.49480047821998596,-0.0383317656815052
1770952048597540000,11.8095400390625,0.16523891687393188,-0.5027416944503784,-0.028557928279042244
1770952048616511500,11.828511474609375,0.1695149689912796,-0.5106829404830933,-0.018173227086663246
1770952048635482600,11.847482666015624,0.17318016290664673,-0.5088503360748291,-0.016340631991624832
1770952048654453800,11.866453857421876,0.1750127524137497,-0.5161807537078857,-0.01695149764418602
1770952048673425000,11.8854248046875,0.18295399844646454,-0.5131264328956604,0.011148282326757908
1770952048692396000,11.90439599609375,0.1853974610567093,-0.5143481492996216,0.01847865991294384
1770952048711367400,11.923367431640624,0.1902843713760376,-0.5222893953323364,0.0386371985077858
1770952048730338600,11.942338623046876,0.19822561740875244,-0.5271763205528259,0.05329795181751251
1770952048749309700,11.961309814453125,0.19272783398628235,-0.5259546041488647,0.04474584385752678
1770952048768280800,11.98028076171875,0.1957821547985077,-0.5283980369567871,0.06062832847237587
1770952048787252000,11.999251953125,0.2000582218170166,-0.5400044918060303,0.06856957077980042
1770952048806223000,12.01822314453125,0.20127993822097778,-0.5375609993934631,0.06551524996757507
1770952048825194500,12.037194580078125,0.2006690800189972,-0.526565432548523,0.06123919412493706
1770952048844165600,12.05616552734375,0.21288637816905975,-0.5351175665855408,0.0844520553946495
1770952048863136800,12.07513671875,0.21716243028640747,-0.5418370366096497,0.08811724185943604
1770952048882108000,12.09410791015625,0.21960589289665222,-0.5442805290222168,0.09239330142736435
1770952048901079000,12.1130791015625,0.22937972843647003,-0.5412262082099915,0.10827577859163284
1770952048920050200,12.13205029296875,0.2214384824037552,-0.5393936038017273,0.09300415962934494
1770952048939021300,12.151021240234375,0.22204934060573578,-0.544891357421875,0.07589995115995407
1770952048957992700,12.16999267578125,0.22937972843647003,-0.5589412450790405,0.05757400393486023
1770952048976963800,12.1889638671875,0.22937972843647003,-0.5424479246139526,0.027030766010284424
1770952048995935000,12.20793505859375,0.23732095956802368,-0.5503891706466675,0.01359174121171236
1770952049014906000,12.226906005859375,0.24892739951610565,-0.5668824911117554,0.014813470654189587
1770952049033877200,12.245877197265624,0.2415970265865326,-0.5577195286750793,-0.028557928279042244
1770952049052848400,12.264848388671876,0.2415970265865326,-0.5534434914588928,-0.05849030241370201
1770952049071819500,12.283819580078125,0.24770566821098328,-0.555276095867157,-0.05787943676114082
1770952049090790700,12.302790771484375,0.2623664140701294,-0.5839866995811462,-0.007177661173045635
1770952049119247400,12.331247314453124,0.24953825771808624,-0.5949822664260864,-0.02672533318400383
1770952049138218500,12.350218505859376,0.23915356397628784,-0.5980366468429565,-0.03283398225903511
1770952049157189600,12.369189697265625,0.22510367631912231,-0.593149721622467,-0.024281874299049377
1770952049176160800,12.388160888671875,0.21471896767616272,-0.6047561168670654,-0.028557928279042244
1770952049195131600,12.407131591796874,0.22204934060573578,-0.6230821013450623,0.0007635809597559273
1770952049214102800,12.426102783203126,0.210442915558815,-0.6206386089324951,0.004428769461810589
1770952049233074200,12.44507421875,0.19822561740875244,-0.6071996092796326,0.017256930470466614
1770952049252045300,12.46404541015625,0.2006690800189972,-0.6371319890022278,0.010537417605519295
1770952049271016400,12.483016357421874,0.19211697578430176,-0.6322450637817383,0.005650499369949102
1770952049289987300,12.5019873046875,0.18661919236183167,-0.6102539300918579,0.005650499369949102
1770952049308958500,12.52095849609375,0.20127993822097778,-0.6328558921813965,0.03741546720266342
1770952049327929600,12.5399296875,0.20189081132411957,-0.6432406306266785,0.04780016839504242
1770952049346900700,12.558900634765624,0.19272783398628235,-0.6169734001159668,0.04780016839504242
1770952049365871900,12.577871826171876,0.20127993822097778,-0.62857985496521,0.05513054504990578
1770952049384843000,12.596843017578125,0.21838416159152985,-0.6316341757774353,0.07345648854970932
1770952049403814100,12.615814208984375,0.2214384824037552,-0.6230821013450623,0.07773254066705704
1770952049422785300,12.634785400390625,0.2360992431640625,-0.6298015713691711,0.09728021919727325
1770952049441756400,12.65375634765625,0.2367101013660431,-0.618806004524231,0.09728021919727325
1770952049460727300,12.672727294921875,0.24281874299049377,-0.6181951761245728,0.08078686892986298
1770952049479698400,12.691698486328125,0.24709481000900269,-0.6261364221572876,0.06123919412493706
1770952049498669600,12.710669677734375,0.2562577724456787,-0.6243038177490234,0.05757400393486023
1770952049517640700,12.729640625,0.24953825771808624,-0.6169734001159668,0.033139415085315704
1770952049536611800,12.74861181640625,0.2556469142436981,-0.6200277805328369,0.04046979174017906
1770952049555583000,12.7675830078125,0.25870123505592346,-0.6249146461486816,0.06368265300989151
1770952049574554000,12.78655419921875,0.2556469142436981,-0.6169734001159668,0.0642935186624527
1770952049593525000,12.80552490234375,0.25442516803741455,-0.618806004524231,0.04413498193025589
1770952049612496100,12.82449609375,0.250149130821228,-0.6218603253364563,0.027030766010284424
1770952049631467300,12.84346728515625,0.24770566821098328,-0.6157516837120056,-0.01695149764418602
1770952049650438400,12.8624384765625,0.2525925934314728,-0.6145299673080444,-0.03222311660647392
1770952049669409500,12.881409423828124,0.25931209325790405,-0.6200277805328369,-0.0206166859716177
1770952049688380400,12.90038037109375,0.25320345163345337,-0.6181951761245728,-0.0383317656815052
1770952049707351600,12.9193515625,0.24709481000900269,-0.6181951761245728,-0.040775224566459656
1770952049726322700,12.93832275390625,0.25442516803741455,-0.6200277805328369,-0.030390523374080658
1770952049745293800,12.9572939453125,0.25503605604171753,-0.6151408553123474,-0.010842849500477314
1770952049764264700,12.9762646484375,0.2513708472251892,-0.6169734001159668,0.006872228812426329
1770952049783235800,12.99523583984375,0.2562577724456787,-0.6224712133407593,0.02153298258781433
1770952049802207000,13.01420703125,0.24465134739875793,-0.6249146461486816,0.004428769461810589
1770952049821178000,13.03317822265625,0.23854269087314606,-0.6224712133407593,0.008704823441803455
1770952049840149200,13.052149169921876,0.22876885533332825,-0.6200277805328369,-0.009621120058000088
1770952049859120000,13.0711201171875,0.22754712402820587,-0.618806004524231,0.011759147047996521
1770952049878091300,13.09009130859375,0.22510367631912231,-0.6267472505569458,0.01908952370285988
1770952049897062400,13.1090625,0.22327107191085815,-0.6230821013450623,0.04780016839504242
1770952049916033300,13.128033203125,0.210442915558815,-0.6145299673080444,0.052076224237680435
1770952049935004400,13.14700439453125,0.21166464686393738,-0.6169734001159668,0.07834340631961823
1770952049953975600,13.1659755859375,0.21349723637104034,-0.6267472505569458,0.08139773458242416
1770952049972946400,13.184946533203124,0.21166464686393738,-0.6181951761245728,0.09239330142736435
1770952049991917600,13.20391748046875,0.20922118425369263,-0.6120865345001221,0.09789107739925385
1770952050029859600,13.241859619140625,0.21655155718326569,-0.6230821013450623,0.09361502528190613
1770952050048830700,13.260830810546874,0.2208276242017746,-0.6249146461486816,0.09911280870437622
1770952050067801900,13.2798017578125,0.22937972843647003,-0.6218603253364563,0.10338886082172394
1770952050086772700,13.298772705078125,0.22815799713134766,-0.6084213256835938,0.10338886082172394
1770952050105744000,13.317743896484375,0.2257145345211029,-0.6071996092796326,0.08933897316455841
1770952050124715000,13.336715087890624,0.21655155718326569,-0.6096430420875549,0.07712167501449585
1770952050143686000,13.355685791015626,0.21655155718326569,-0.6096430420875549,0.09544762223958969
1770952050162657000,13.374656982421875,0.20738859474658966,-0.6065887212753296,0.08872810751199722
1770952050181628000,13.3936279296875,0.2055560052394867,-0.6151408553123474,0.08750637620687485
1770952050200599000,13.41259912109375,0.20677772164344788,-0.6218603253364563,0.0746782198548317
1770952050219570200,13.431570068359376,0.20189081132411957,-0.6206386089324951,0.05146535858511925
1770952050238541000,13.450541015625,0.2000582218170166,-0.6230821013450623,0.028863361105322838
1770952050257512200,13.46951220703125,0.19944734871387482,-0.6316341757774353,0.008093958720564842
1770952050276483000,13.488483154296874,0.19700388610363007,-0.627968966960907,-0.001679878099821508
1770952050295454200,13.5074541015625,0.2006690800189972,-0.6212494969367981,0.009926552884280682
1770952050314425000,13.526425048828125,0.2055560052394867,-0.6249146461486816,0.02825249545276165
1770952050333396200,13.545396240234375,0.19944734871387482,-0.6243038177490234,0.010537417605519295
1770952050352367400,13.564367431640624,0.20311254262924194,-0.6261364221572876,0.023365577682852745
1770952050371338200,13.583338134765626,0.20433427393436432,-0.618806004524231,0.04169152304530144
1770952050390309400,13.602309326171875,0.2055560052394867,-0.6273581385612488,0.04230238497257233
1770952050409280300,13.6212802734375,0.20250166952610016,-0.6365211009979248,0.03252854943275452
1770952050428251400,13.64025146484375,0.19089524447917938,-0.618806004524231,0.017256930470466614
1770952050447222300,13.65922216796875,0.1957821547985077,-0.6157516837120056,0.022754713892936707
1770952050466193400,13.678193359375,0.2000582218170166,-0.6224712133407593,0.025809036567807198
1770952050485164300,13.697164306640625,0.20311254262924194,-0.6139190793037415,0.045967575162649155
1770952050504135400,13.716135498046874,0.20799945294857025,-0.6120865345001221,0.049632761627435684
1770952050523106300,13.735106201171876,0.21655155718326569,-0.6114756464958191,0.0691804364323616
1770952050542077200,13.7540771484375,0.21288637816905975,-0.6059778332710266,0.06673697382211685
1770952050561048300,13.77304833984375,0.210442915558815,-0.5937605500221252,0.05635227635502815
1770952050580019500,13.79201953125,0.21227550506591797,-0.5949822664260864,0.05146535858511925
1770952050598990300,13.810990234375,0.21471896767616272,-0.5968148708343506,0.04535670951008797
1770952050617961500,13.82996142578125,0.2159406989812851,-0.5894845128059387,0.045967575162649155
1770952050636932400,13.848932373046875,0.2202167510986328,-0.5913171172142029,0.05024362727999687
1770952050655903200,13.8679033203125,0.22204934060573578,-0.5919279456138611,0.07345648854970932
1770952050674874400,13.886874267578126,0.21960589289665222,-0.5858193039894104,0.0746782198548317
1770952050693845200,13.90584521484375,0.21716243028640747,-0.5797106623649597,0.07101303339004517
1770952050712816000,13.924816162109375,0.2159406989812851,-0.5797106623649597,0.07895427197217941
1770952050731787300,13.943787353515624,0.21288637816905975,-0.5858193039894104,0.05635227635502815
1770952050750758100,13.962758056640626,0.20861032605171204,-0.5760455131530762,0.07162389904260635
1770952050769729300,13.981729248046875,0.20922118425369263,-0.5766563415527344,0.052076224237680435
1770952050788700200,14.0007001953125,0.20861032605171204,-0.5674933791160583,0.05085449293255806
1770952050807671000,14.019671142578124,0.20738859474658966,-0.5748237371444702,0.05085449293255806
1770952050826642200,14.03864208984375,0.2110537886619568,-0.5797106623649597,0.042913250625133514
1770952050845613000,14.057613037109375,0.20311254262924194,-0.565049946308136,0.04474584385752678
1770952050864584000,14.076583984375,0.20189081132411957,-0.5632173418998718,0.04780016839504242
1770952050883555000,14.09555517578125,0.20127993822097778,-0.5681042671203613,0.045967575162649155
1770952050902526000,14.11452587890625,0.19333870708942413,-0.5626064538955688,0.0386371985077858
1770952050921497000,14.1334970703125,0.17562362551689148,-0.5619956254959106,-0.004123337101191282
1770952050940468000,14.152468017578125,0.17134757339954376,-0.5589412450790405,-0.013897174037992954
1770952050959438800,14.17143896484375,0.1750127524137497,-0.5577195286750793,-0.005955931730568409
1770952050978410000,14.190409912109375,0.1750127524137497,-0.5522217750549316,0.0001527161948615685
1770952050997380900,14.209380859375,0.17562362551689148,-0.544891357421875,0.008093958720564842
1770952051016351700,14.228351806640624,0.16829325258731842,-0.5222893953323364,-0.02000582218170166
1770952051035322600,14.247322509765626,0.17562362551689148,-0.5186241865158081,0.0007635809597559273
1770952051054293800,14.266293701171875,0.18173226714134216,-0.5283980369567871,0.02458730712532997
1770952051073264600,14.2852646484375,0.17684535682201385,-0.5149590373039246,0.02153298258781433
1770952051092235500,14.304235595703124,0.17806708812713623,-0.5033525824546814,0.019700389355421066
1770952051111206700,14.32320654296875,0.17256930470466614,-0.49418962001800537,-0.002290742937475443
1770952051130177500,14.342177490234375,0.1695149689912796,-0.4831940531730652,-0.002290742937475443
1770952051149148400,14.3611484375,0.168904110789299,-0.48930269479751587,-0.004123337101191282
1770952051168119300,14.380119384765624,0.17073670029640198,-0.481361448764801,0.0032070400193333626
1770952051187090200,14.399090087890626,0.17134757339954376,-0.46547895669937134,-0.0102319847792387
1770952051206061300,14.418061279296875,0.17806708812713623,-0.4557051360607147,0.0038179049734026194
1770952051225032200,14.4370322265625,0.15790854394435883,-0.4355465769767761,-0.015729768201708794
1770952051253488600,14.465488525390626,0.15118902921676636,-0.43371400237083435,-0.03588830679655075
1770952051272459500,14.48445947265625,0.15790854394435883,-0.4166097939014435,-0.02611446939408779
1770952051291430400,14.503430419921875,0.16035200655460358,-0.4001164436340332,-0.011453714221715927
1770952051310401300,14.5224013671875,0.1646280586719513,-0.3903425931930542,-0.008399390615522861
1770952051329372200,14.5413720703125,0.16279546916484833,-0.3787361681461334,-0.017562363296747208
1770952051348343300,14.56034326171875,0.16157373785972595,-0.3787361681461334,-0.009010255336761475
1770952051367314200,14.579314208984375,0.16218459606170654,-0.3707949221134186,-0.011453714221715927
1770952051386285000,14.59828515625,0.15668681263923645,-0.35613417625427246,-0.019394956529140472
1770952051405256000,14.617255859375,0.15607595443725586,-0.35124725103378296,-0.021838415414094925
1770952051424226800,14.636226806640625,0.14813470840454102,-0.3390299379825592,-0.024892739951610565
1770952051452683300,14.664683349609374,0.1438586562871933,-0.32131487131118774,-0.016340631991624832
1770952051471654100,14.683654052734376,0.13958260416984558,-0.318871408700943,-0.012675444595515728
1770952051490625000,14.702625,0.14019346237182617,-0.31093016266822815,-0.002290742937475443
1770952051509596200,14.72159619140625,0.1334739476442337,-0.2926042377948761,0.007483093533664942
1770952051528566800,14.74056689453125,0.12370011955499649,-0.28466299176216125,-0.004734201822429895
1770952051547538000,14.759537841796876,0.1285870373249054,-0.2864955961704254,0.027030766010284424
1770952051566508800,14.7785087890625,0.12980876863002777,-0.2809978127479553,0.049632761627435684
1770952051585479700,14.797479736328125,0.129197895526886,-0.26878049969673157,0.04841103404760361
1770952051604450600,14.816450439453124,0.12431098520755768,-0.26450446248054504,0.02153298258781433
1770952051623421400,14.83542138671875,0.11698060482740402,-0.2528980076313019,0.01359174121171236
1770952051642392300,14.854392333984375,0.11331541836261749,-0.2406807243824005,0.025809036567807198
1770952051661363200,14.87336328125,0.11636973917484283,-0.23457208275794983,0.02764163166284561
1770952051680334000,14.892333984375,0.12125665694475174,-0.23335035145282745,0.0007635809597559273
1770952051699305000,14.911304931640625,0.1285870373249054,-0.22174391150474548,0.020311253145337105
1770952051718275800,14.93027587890625,0.13041962683200836,-0.2107483446598053,0.02825249545276165
1770952051737246700,14.949246826171875,0.12980876863002777,-0.19303326308727264,0.02764163166284561
1770952051756217600,14.968217529296876,0.1279761642217636,-0.1893680840730667,0.039248060435056686
1770952051775188500,14.9871884765625,0.12003492563962936,-0.1899789422750473,0.01908952370285988
1770952051794159400,15.006159423828125,0.11881320178508759,-0.17898337543010712,0.009315688163042068
1770952051813130200,15.025130126953124,0.11636973917484283,-0.17226386070251465,-0.005955931730568409
1770952051832101000,15.04410107421875,0.11331541836261749,-0.17226386070251465,-0.018784092739224434
1770952051851072000,15.063072021484375,0.10659590363502502,-0.14782927930355072,-0.03405570983886719
1770952051870043000,15.08204296875,0.11698060482740402,-0.15638138353824615,-0.027336198836565018
1770952051889013800,15.101013671875,0.10537417232990265,-0.1490510106086731,-0.034666575491428375
1770952051907984600,15.119984619140626,0.09987638890743256,-0.15577052533626556,-0.04505127668380737
1770952051926955500,15.13895556640625,0.09010255336761475,-0.1588248461484909,-0.041386090219020844
1770952051945926400,15.157926513671875,0.0766635313630104,-0.1539379209280014,-0.02367101050913334
1770952051964897300,15.176897216796876,0.0668896958231926,-0.15027274191379547,-0.017562363296747208
1770952051983868200,15.1958681640625,0.04673115536570549,-0.1386663019657135,-0.018784092739224434
1770952052002839000,15.214839111328125,0.03756818547844887,-0.13561198115348816,-0.008399390615522861
1770952052031295200,15.243295166015624,0.023518294095993042,-0.1282816082239151,0.030695954337716103
1770952052050266000,15.26226611328125,0.013744457624852657,-0.13683371245861053,0.02519817277789116
1770952052069237000,15.281237060546875,-0.0015271619195118546,-0.12034036219120026,0.022754713892936707
1770952052088208000,15.300207763671875,-0.003970621153712273,-0.12522727251052856,0.02519817277789116
1770952052107178800,15.3191787109375,-0.011300998739898205,-0.12461641430854797,0.008093958720564842
1770952052126149600,15.338149658203125,-0.021685699000954628,-0.10934479534626007,0.009926552884280682
1770952052145120500,15.35712060546875,-0.029016077518463135,-0.12278381735086441,0.012370011769235134
1770952052164091100,15.376091064453124,-0.022907428443431854,-0.13255766034126282,0.04718930274248123
1770952052183062000,15.39506201171875,-0.029016077518463135,-0.11606431007385254,0.049021899700164795
1770952052202033000,15.414032958984375,-0.029016077518463135,-0.10567960888147354,0.02764163166284561
1770952052221003800,15.433003662109375,-0.024740023538470268,-0.11545344442129135,0.04718930274248123
1770952052239974700,15.451974609375,-0.02107483521103859,-0.10079269111156464,0.05757400393486023
1770952052258945500,15.470945556640626,-0.02718348242342472,-0.0922405794262886,0.029474224895238876
1770952052277916200,15.489916259765625,-0.02779434807598591,-0.10506874322891235,0.009926552884280682
1770952052296887000,15.508886962890625,-0.022907428443431854,-0.10384701192378998,0.0154243353754282
1770952052315858000,15.52785791015625,-0.03634645417332649,-0.08918625861406326,-0.021838415414094925
1770952052334828800,15.546828857421875,-0.025961752980947495,-0.08429934084415436,-0.002290742937475443
1770952052353799700,15.565799560546875,-0.019853105768561363,-0.07024945318698883,-0.005345067009329796
1770952052382255900,15.594255859375,-0.00946840364485979,-0.06963858753442764,-0.01511890348047018
1770952052401226800,15.613226806640625,-0.007635809946805239,-0.050090912729501724,-0.0334448479115963
1770952052420197400,15.632197265625,0.00946840364485979,-0.043371398001909256,-0.022449281066656113
1770952052439168300,15.651168212890624,0.02412915788590908,-0.05192350596189499,-0.024892739951610565
1770952052458139100,15.67013916015625,0.035735588520765305,-0.04764745384454727,-0.018173227086663246
1770952052477109800,15.68910986328125,0.05222893878817558,-0.033597562462091446,0.0019853105768561363
1770952052496080600,15.70808056640625,0.07055488228797913,-0.02626718580722809,0.0038179049734026194
1770952052515051500,15.727051513671874,0.07116574794054031,-0.01954767294228077,-0.0206166859716177
1770952052534022400,15.7460224609375,0.07422006875276566,-0.018325943499803543,0.0001527161948615685
1770952052552993000,15.764992919921875,0.08399390429258347,-0.01282816007733345,0.004428769461810589
1770952052571964000,15.7839638671875,0.0870482325553894,-0.003665188793092966,-0.0102319847792387
1770952052590934800,15.802934814453126,0.09315688163042068,-0.009162971749901772,-0.008399390615522861
1770952052609905400,15.821905517578125,0.10476330667734146,-0.01588248461484909,0.02153298258781433
1770952052628876300,15.840876220703125,0.10415244847536087,-0.008552107028663158,0.011148282326757908
1770952052657332500,15.86933251953125,0.10170898586511612,0.000610864779446274,0.01847865991294384
1770952052676303400,15.888303466796875,0.09376774728298187,0.0054977829568088055,0.008704823441803455
1770952052695274200,15.907274169921875,0.09987638890743256,0.007330377586185932,-0.016340631991624832
1770952052714244900,15.926244873046874,0.10354158282279968,-0.002443459117785096,-0.009621120058000088
1770952052733215700,15.9452158203125,0.10048725455999374,0.000610864779446274,-0.005955931730568409
1770952052752186600,15.9641865234375,0.0870482325553894,0,-0.0334448479115963
1770952052771157200,15.9831572265625,0.08765909820795059,-0.007941242307424545,-0.014508038759231567
1770952052790128000,16.002128173828126,0.0821613147854805,-0.001832594396546483,-0.001679878099821508
1770952052809098800,16.0210986328125,0.07422006875276566,-0.004886918235570192,0.0019853105768561363
1770952052828069600,16.040069580078125,0.07238747924566269,-0.01893680728971958,0.009315688163042068
1770952052847040500,16.05904052734375,0.057726722210645676,-0.013439024798572063,-0.001679878099821508
1770952052866011100,16.07801123046875,0.03695731982588768,-0.009773836471140385,0.012980876490473747
1770952052903953000,16.115952880859375,0.008857538923621178,-0.02932151034474373,0.0013744457392022014
1770952052922923500,16.134923583984374,0.000305432389723137,-0.026878049597144127,0.0013744457392022014
1770952052941894100,16.15389404296875,-0.007024944759905338,-0.03298669680953026,0.020922118797898293
1770952052960865000,16.172864990234373,-0.022907428443431854,-0.03543015569448471,-0.003512472379952669
1770952052979836000,16.1918359375,-0.032681263983249664,-0.030543239787220955,-0.005955931730568409
1770952052998806800,16.210806884765624,-0.03940077871084213,-0.043982263654470444,-0.014508038759231567
1770952053017777400,16.22977734375,-0.048563748598098755,-0.0360410213470459,-0.009621120058000088
1770952053036748000,16.248748046875,-0.04367683082818985,-0.043371398001909256,-0.027336198836565018
1770952053055719000,16.267718994140626,-0.03940077871084213,-0.043982263654470444,-0.007177661173045635
1770952053074689800,16.286689697265626,-0.03695731982588768,-0.0360410213470459,0.007483093533664942
1770952053093660400,16.305660400390625,-0.03817904740571976,-0.039706211537122726,-0.016340631991624832
1770952053112631300,16.32463134765625,-0.032681263983249664,-0.0409279391169548,-0.012675444595515728
1770952053131602000,16.343601806640624,-0.03817904740571976,-0.023823726922273636,-0.03222311660647392
1770952053150572800,16.36257275390625,-0.023518294095993042,-0.01954767294228077,-0.037720900028944016
1770952053169543400,16.38154345703125,-0.006414080038666725,-0.017715077847242355,0.0007635809597559273
1770952053188514000,16.40051416015625,0.0009162971982732415,-0.018325943499803543,-0.002290742937475443
1770952053207485000,16.41948486328125,0.005803215317428112,-0.01954767294228077,-0.0010690133785828948
1770952053226455800,16.438455810546873,0.02107483521103859,-0.013439024798572063,0.0007635809597559273
1770952053245426400,16.457426513671876,0.032070402055978775,0,0.0062613640911877155
1770952053264397000,16.47639697265625,0.04245510324835777,0.006108647678047419,0.011759147047996521
1770952053283368000,16.495367919921875,0.04428769648075104,-0.0030543238390237093,0.006872228812426329
1770952053302338600,16.514338623046875,0.051618073135614395,-0.0030543238390237093,0.008704823441803455
1770952053321309400,16.533309326171874,0.0565049909055233,0.008552107028663158,0.009315688163042068
1770952053340280300,16.5522802734375,0.05406153202056885,0.010384701192378998,-0.004734201822429895
1770952053359251000,16.5712509765625,0.05100720748305321,0.009162971749901772,-0.015729768201708794
1770952053378221600,16.5902216796875,0.05283980444073677,0.004886918235570192,-0.03588830679655075
1770952053397192400,16.6091923828125,0.048563748598098755,0.012217295356094837,-0.01511890348047018
1770952053416163000,16.6281630859375,0.044898562133312225,0.0030543238390237093,-0.018784092739224434
1770952053435134000,16.647134033203123,0.04367683082818985,0,-0.008399390615522861
1770952053454104600,16.6661044921875,0.035124726593494415,0.020158538594841957,-0.011453714221715927
1770952053473075200,16.6850751953125,0.028405211865901947,0.007941242307424545,-0.054214250296354294
1770952053492046000,16.704046142578125,0.03390299528837204,0.009773836471140385,-0.044440411031246185
1770952053511016700,16.7230166015625,0.032070402055978775,-0.001832594396546483,-0.021838415414094925
1770952053529987600,16.741987548828124,0.03145953640341759,0.020769402384757996,-0.014508038759231567
1770952053548958200,16.760958251953124,0.029626941308379173,0.01649334840476513,-0.044440411031246185
1770952053567928800,16.7799287109375,0.032070402055978775,0.004886918235570192,-0.03711003437638283
1770952053586899500,16.7988994140625,0.021685699000954628,-0.0054977829568088055,-0.03955349326133728
1770952053605870300,16.817870361328126,0.007635809946805239,-0.0030543238390237093,-0.03405570983886719
1770952053624841000,16.836841064453125,-0.003970621153712273,0.001832594396546483,-0.03405570983886719
1770952053643811800,16.855811767578125,-0.01802051067352295,0.007330377586185932,-0.034666575491428375
1770952053662782500,16.874782470703124,-0.025350889191031456,-0.004276053514331579,-0.017562363296747208
1770952053681753300,16.89375341796875,-0.035735588520765305,-0.010995565913617611,-0.015729768201708794
1770952053700724000,16.912723876953127,-0.04062250629067421,-0.021991131827235222,-0.031001387163996696
1770952053719694600,16.931694580078126,-0.051618073135614395,-0.014660755172371864,-0.019394956529140472
1770952053738665200,16.950665283203126,-0.05955931544303894,-0.01282816007733345,-0.018784092739224434
1770952053757636000,16.969635986328125,-0.06811141967773438,-0.02626718580722809,-0.004734201822429895
1770952053776606700,16.988606689453125,-0.0717766135931015,-0.028099779039621353,0.016035201027989388
1770952053795577300,17.007577392578124,-0.0772743970155716,-0.02260199747979641,0.016646064817905426
1770952053814548200,17.02654833984375,-0.07116574794054031,-0.01649334840476513,0.010537417605519295
1770952053843004200,17.055004150390626,-0.08277218043804169,-0.025045456364750862,-0.002901607658714056
1770952053861974800,17.073974853515626,-0.08949168771505356,-0.03237583488225937,-0.012675444595515728
1770952053880945400,17.0929453125,-0.08277218043804169,-0.04459312930703163,0.009315688163042068
1770952053899916300,17.111916259765625,-0.08032871782779694,-0.029932374134659767,0.01847865991294384
1770952053918887000,17.130886962890624,-0.09132428467273712,-0.011606430634856224,-0.01695149764418602
1770952053937857800,17.14985791015625,-0.08888082206249237,-0.01588248461484909,-0.025503603741526604
1770952053956828400,17.168828369140623,-0.0766635313630104,-0.025045456364750862,-0.017562363296747208
1770952053975799000,17.187799072265626,-0.060781046748161316,-0.034208428114652634,-0.018784092739224434
1770952053994769700,17.206769775390626,-0.048563748598098755,-0.006719512399286032,-0.021838415414094925
1770952054023225600,17.2352255859375,-0.025961752980947495,-0.0054977829568088055,-0.002901607658714056
1770952054042196500,17.254196533203125,-0.008857538923621178,0.011606430634856224,0.0019853105768561363
1770952054061167000,17.2731669921875,0.000305432389723137,0.01954767294228077,-0.007788525894284248
1770952054080137700,17.2921376953125,0.02779434807598591,0.007330377586185932,0.017867794260382652
1770952054099108600,17.311108642578127,0.03451386094093323,0.02871064469218254,0.02764163166284561
1770952054118079200,17.330079345703126,0.03756818547844887,0.03237583488225937,0.0038179049734026194
1770952054137049900,17.3490498046875,0.04428769648075104,0.033597562462091446,-0.005345067009329796
1770952054156020500,17.3680205078125,0.05039634555578232,0.036651886999607086,0.006872228812426329
1770952054174991400,17.386991455078125,0.061391908675432205,0.03543015569448471,0.03252854943275452
1770952054193962000,17.4059619140625,0.05345066636800766,0.0256563201546669,0.020922118797898293
1770952054212932600,17.4249326171875,0.04978547990322113,0.020158538594841957,0.025809036567807198
1770952054231903200,17.4439033203125,0.03756818547844887,0.018325943499803543,0.020311253145337105
1770952054250873900,17.462873779296874,0.035124726593494415,0.018325943499803543,0.010537417605519295
1770952054269844500,17.481844482421874,0.026572618633508682,0.03237583488225937,0.012370011769235134
1770952054298300700,17.51030078125,0.013744457624852657,-0.004276053514331579,-0.024892739951610565
1770952054317271300,17.529271240234376,-0.006414080038666725,-0.004276053514331579,-0.034666575491428375
1770952054336242000,17.548241943359375,-0.012522728182375431,0.002443459117785096,-0.010842849500477314
1770952054355212500,17.567212646484375,-0.01802051067352295,0.010995565913617611,-0.002290742937475443
1770952054374183200,17.58618310546875,-0.013133592903614044,-0.000610864779446274,0.005650499369949102
1770952054393154000,17.605154052734374,-0.02779434807598591,0.004886918235570192,-0.0010690133785828948
1770952054412124700,17.624124755859373,-0.02779434807598591,-0.008552107028663158,0.033139415085315704
1770952054431095300,17.64309521484375,-0.025350889191031456,-0.020158538594841957,0.02764163166284561
1770952054450066000,17.66206591796875,-0.038789913058280945,0.001221729558892548,-0.010842849500477314
1770952054469036500,17.68103662109375,-0.04673115536570549,-0.000610864779446274,-0.02916879393160343
1770952054488007200,17.700007080078127,-0.04306596517562866,-0.025045456364750862,-0.024892739951610565
1770952054506977800,17.718977783203126,-0.0412333719432354,-0.025045456364750862,0.007483093533664942
1770952054525948400,17.737948486328126,-0.0565049909055233,-0.009162971749901772,-0.004734201822429895
1770952054544919000,17.7569189453125,-0.054672397673130035,-0.0054977829568088055,0.0062613640911877155
1770952054563890000,17.775889892578125,-0.04306596517562866,-0.021991131827235222,0.026419902220368385
1770952054582860500,17.794860595703124,-0.05222893878817558,-0.015271619893610477,0.008704823441803455
1770952054601831200,17.8138310546875,-0.05406153202056885,-0.017104214057326317,0.0013744457392022014
1770952054620801800,17.8328017578125,-0.04917461425065994,-0.03909534588456154,0.009315688163042068
1770952054639772400,17.8517724609375,-0.05100720748305321,-0.025045456364750862,0.02519817277789116
1770952054658743000,17.870742919921874,-0.04550942778587341,-0.006719512399286032,0.01847865991294384
1770952054677713700,17.889713623046877,-0.03695731982588768,-0.0030543238390237093,-0.004734201822429895
1770952054706169600,17.918169677734376,-0.016798781231045723,-0.002443459117785096,0.02519817277789116
1770952054725140500,17.937140380859375,-0.0021380267571657896,0.004886918235570192,0.01908952370285988
1770952054744111000,17.956111083984375,0.00946840364485979,0.021380268037319183,-0.014508038759231567
1770952054763081700,17.975081787109374,0.015577051788568497,0.034208428114652634,-0.021838415414094925
1770952054782052400,17.99405224609375,0.0461202897131443,0.025045456364750862,0.0038179049734026194
1770952054801023000,18.01302294921875,0.04917461425065994,0.03298669680953026,0.006872228812426329
1770952054819993600,18.03199365234375,0.057726722210645676,0.0256563201546669,0.008093958720564842
1770952054848449500,18.060449462890624,0.05345066636800766,0.018325943499803543,-0.006566796451807022
1770952054867420200,18.079420166015623,0.057726722210645676,0.02260199747979641,0.023365577682852745
1770952054886390800,18.098390869140626,0.05222893878817558,0.023823726922273636,-0.006566796451807022
1770952054905361400,18.117361328125,0.061391908675432205,0.01282816007733345,0.005650499369949102
1770952054924332000,18.13633203125,0.06383536756038666,0.01649334840476513,0.036804601550102234
1770952054943302700,18.155302734375,0.04673115536570549,0.036651886999607086,0.011759147047996521
1770952054962273300,18.174273193359376,0.044898562133312225,0.03787361457943916,-0.01206457894295454
1770952054981244000,18.193243896484375,0.057726722210645676,0.028099779039621353,0.017256930470466614
1770952055000214500,18.212214599609375,0.05528326332569122,0.031154103577136993,0.0154243353754282
1770952055019185200,18.23118505859375,0.041844237595796585,0.021380268037319183,-0.03283398225903511
1770952055038155800,18.25015576171875,0.032070402055978775,0.014660755172371864,-0.01511890348047018
1770952055057126400,18.26912646484375,0.013133592903614044,0.001221729558892548,-0.011453714221715927
1770952055076097000,18.288096923828125,0.007024944759905338,-0.012217295356094837,0.008093958720564842
1770952055095067600,18.307067626953124,-0.011300998739898205,0.004276053514331579,0.0038179049734026194
1770952055114038300,18.326038330078124,-0.029016077518463135,-0.001221729558892548,-0.006566796451807022
1770952055133009000,18.3450087890625,-0.03634645417332649,-0.020158538594841957,-0.004734201822429895
1770952055151979500,18.3639794921875,-0.04550942778587341,-0.020158538594841957,0.02764163166284561
1770952055170950100,18.3829501953125,-0.05100720748305321,-0.010995565913617611,0.033139415085315704
1770952055189920800,18.401920654296877,-0.05833758786320686,-0.021380268037319183,-0.001679878099821508
1770952055208891400,18.420891357421876,-0.06322450190782547,-0.029932374134659767,0.01359174121171236
1770952055227862000,18.439862060546876,-0.06627883017063141,-0.01649334840476513,0.011148282326757908
1770952055246832600,18.45883251953125,-0.06444623321294785,-0.01649334840476513,0.019700389355421066
1770952055265803300,18.47780322265625,-0.06200277432799339,-0.025045456364750862,0.023365577682852745
1770952055284774000,18.49677392578125,-0.061391908675432205,-0.021380268037319183,0.01908952370285988
1770952055303744500,18.51574462890625,-0.06750056147575378,-0.01893680728971958,0.0025961752980947495
1770952055322715100,18.534715087890625,-0.06261363625526428,-0.020769402384757996,0.009315688163042068
1770952055341685800,18.553685791015624,-0.05833758786320686,-0.02871064469218254,-0.004734201822429895
1770952055360656400,18.572656494140624,-0.04367683082818985,-0.020158538594841957,0.005039634648710489
1770952055379627000,18.591626953125,-0.05100720748305321,-0.000610864779446274,-0.024281874299049377
1770952055398597600,18.61059765625,-0.04001164436340332,0.000610864779446274,-0.02000582218170166
1770952055417568300,18.629568359375,-0.01740964688360691,-0.010384701192378998,0.02458730712532997
1770952055436539000,18.648538818359373,-0.006414080038666725,0.001832594396546483,0.03191768378019333
1770952055455509500,18.667509521484376,-0.011300998739898205,0.013439024798572063,-0.03649916872382164
1770952055474480000,18.686480224609376,0.010079269297420979,0.0030543238390237093,-0.02367101050913334
1770952055493450500,18.705450439453124,0.026572618633508682,0.017715077847242355,-0.004123337101191282
1770952055512421000,18.724421142578127,0.024740023538470268,0.015271619893610477,-0.018784092739224434
1770952055540877000,18.752876953125,0.03329212963581085,0.020769402384757996,-0.018784092739224434
1770952055559847700,18.77184765625,0.04306596517562866,0.01588248461484909,-0.013897174037992954
1770952055578818300,18.790818359375,0.038789913058280945,0.021380268037319183,-0.006566796451807022
1770952055597789000,18.809788818359376,0.02412915788590908,0.01893680728971958,-0.034666575491428375
1770952055616759600,18.828759521484375,0.03145953640341759,0.014660755172371864,-0.02306014485657215
1770952055635730200,18.847730224609375,0.03023780696094036,0.009162971749901772,-0.011453714221715927
1770952055654700800,18.86670068359375,0.029016077518463135,0.007330377586185932,-0.012675444595515728
1770952055673671400,18.88567138671875,0.03329212963581085,0.009773836471140385,0.0007635809597559273
1770952055692642000,18.90464208984375,0.01802051067352295,0.023212861269712448,-0.019394956529140472
1770952055711612700,18.92361279296875,0.015577051788568497,0.021991131827235222,-0.009010255336761475
1770952055730583000,18.9425830078125,0.021685699000954628,0.012217295356094837,0.009315688163042068
1770952055749553700,18.9615537109375,0.025961752980947495,0.01893680728971958,0.029474224895238876
1770952055768524300,18.980524169921875,0.029626941308379173,0.01893680728971958,0.022754713892936707
1770952055787495000,18.999494873046874,0.0204639695584774,0.01649334840476513,-0.003512472379952669
1770952055806465500,19.018465576171874,0.02779434807598591,0.013439024798572063,0.008704823441803455
1770952055825436200,19.037436279296877,0.011300998739898205,0.01588248461484909,-0.011453714221715927
1770952055844406800,19.05640673828125,0.025350889191031456,0.012217295356094837,0.02825249545276165
1770952055863377400,19.07537744140625,0.01435532234609127,0.01282816007733345,0.008704823441803455
1770952055882348000,19.09434814453125,0.007024944759905338,0.006108647678047419,-0.006566796451807022
1770952055901318400,19.113318359375,0.003359756199643016,0.004276053514331579,-0.002290742937475443
1770952055920289000,19.1322890625,-0.0015271619195118546,0.006719512399286032,0.009315688163042068
1770952055939259600,19.151259765625,0.010690134018659592,0.007330377586185932,0.027030766010284424
1770952055958230300,19.170230224609377,0.0027488914784044027,0.006108647678047419,0.023365577682852745
1770952055977201000,19.189200927734376,-0.008857538923621178,0.004886918235570192,-0.02611446939408779
1770952055996171300,19.208171142578124,-0.013744457624852657,-0.000610864779446274,-0.01206457894295454
1770952056015142000,19.227141845703127,-0.02412915788590908,-0.013439024798572063,-0.022449281066656113
1770952056034112500,19.246112548828126,-0.03023780696094036,-0.020769402384757996,-0.010842849500477314
1770952056053083100,19.265083251953126,-0.029626941308379173,-0.007941242307424545,-0.002901607658714056
1770952056072053800,19.2840537109375,-0.03329212963581085,-0.001221729558892548,-0.01511890348047018
1770952056091024400,19.3030244140625,-0.04001164436340332,-0.017104214057326317,-0.0010690133785828948
1770952056109995000,19.3219951171875,-0.03390299528837204,-0.021380268037319183,0.02519817277789116
1770952056128965400,19.34096533203125,-0.035124726593494415,-0.007941242307424545,-0.008399390615522861
1770952056147936000,19.35993603515625,-0.025961752980947495,-0.012217295356094837,0.020922118797898293
1770952056166906600,19.37890673828125,-0.024740023538470268,0,0.03375028073787689
1770952056185877200,19.397877197265625,-0.029016077518463135,-0.010384701192378998,-0.003512472379952669
1770952056204847600,19.41684765625,-0.023518294095993042,-0.026878049597144127,0.010537417605519295
1770952056223818200,19.435818359375,-0.01740964688360691,-0.001221729558892548,0.025809036567807198
1770952056252274200,19.464274169921875,-0.004581485874950886,-0.0054977829568088055,0.008093958720564842
1770952056271244800,19.483244873046875,0.011300998739898205,0.007330377586185932,0.012980876490473747
1770952056290215400,19.50221533203125,0.013744457624852657,0.01954767294228077,0.007483093533664942
1770952056309185800,19.521185791015625,0.019242240116000175,0.023212861269712448,-0.009621120058000088
1770952056328156400,19.540156494140625,0.038789913058280945,0.017715077847242355,0.016035201027989388
1770952056347127000,19.559126953125,0.05283980444073677,0.02260199747979641,0.014813470654189587
1770952056366097400,19.578097412109376,0.05222893878817558,0.020769402384757996,-0.007177661173045635
1770952056385068000,19.597068115234375,0.0668896958231926,0.01588248461484909,-0.008399390615522861
1770952056404038700,19.61603857421875,0.07238747924566269,0.023823726922273636,-0.003512472379952669
1770952056423009300,19.63500927734375,0.07238747924566269,0.020158538594841957,-0.022449281066656113
1770952056441980000,19.65397998046875,0.08032871782779694,0.015271619893610477,-0.012675444595515728
1770952056460950300,19.6729501953125,0.0772743970155716,0.029932374134659767,-0.013897174037992954
1770952056479921000,19.6919208984375,0.07910698652267456,0.02932151034474373,-0.021838415414094925
1770952056498891500,19.7108916015625,0.09071341902017593,0.01893680728971958,-0.02367101050913334
1770952056517862000,19.72986181640625,0.07422006875276566,0.020769402384757996,-0.04932733252644539
1770952056536832500,19.74883251953125,0.0821613147854805,0.018325943499803543,-0.018173227086663246
1770952056555803100,19.76780322265625,0.07360920310020447,0.027488915249705315,-0.04566214233636856
1770952056574773800,19.786773681640625,0.07483093440532684,0.020158538594841957,-0.05177079141139984
1770952056593744100,19.805744140625,0.08032871782779694,0,-0.015729768201708794
1770952056612714800,19.82471484375,0.054672397673130035,0.0054977829568088055,-0.034666575491428375
1770952056631685400,19.843685302734375,0.05528326332569122,0.007941242307424545,-0.018784092739224434
1770952056650655700,19.86265576171875,0.04734202101826668,-0.0054977829568088055,-0.030390523374080658
1770952056669626400,19.88162646484375,0.03451386094093323,-0.02932151034474373,-0.02000582218170166
1770952056688597000,19.900596923828125,0.025961752980947495,-0.029932374134659767,0.017867794260382652
1770952056707567600,19.919567626953125,-0.004581485874950886,-0.02260199747979641,0.011148282326757908
1770952056726538000,19.9385380859375,-0.013744457624852657,-0.03848448023200035,0.02458730712532997
1770952056745508600,19.957508544921875,-0.026572618633508682,-0.049480047076940536,0.03741546720266342
1770952056764479200,19.976479248046875,-0.038789913058280945,-0.05253437161445618,0.03191768378019333
1770952056783449600,19.99544970703125,-0.051618073135614395,-0.049480047076940536,0.022754713892936707
1770952056802420200,20.014420166015626,-0.051618073135614395,-0.0665842592716217,0.026419902220368385
1770952056821390800,20.033390869140625,-0.04734202101826668,-0.07880155742168427,0.02214384824037552
1770952056840361500,20.052361572265625,-0.04306596517562866,-0.07024945318698883,0.023365577682852745
1770952056859331800,20.071331787109376,-0.0412333719432354,-0.06414080411195755,0.016035201027989388
1770952056878302500,20.090302490234375,-0.03390299528837204,-0.06536252796649933,-0.001679878099821508
1770952056897272800,20.10927294921875,-0.03023780696094036,-0.07086031138896942,0.0013744457392022014
1770952056916243500,20.128243408203126,-0.014966187067329884,-0.06841685622930527,0.026419902220368385
1770952056935214000,20.147214111328125,-0.01740964688360691,-0.05497783049941063,0.0019853105768561363
1770952056954184400,20.166184326171877,-0.005192350596189499,-0.07147117704153061,-0.031001387163996696
1770952056973155000,20.185155029296876,0.010079269297420979,-0.08124501258134842,-0.007788525894284248
1770952056992125700,20.204125732421875,0.010079269297420979,-0.07269290834665298,-0.006566796451807022
1770952057011096000,20.223095947265627,0.016187917441129684,-0.08124501258134842,-0.027336198836565018
1770952057030066700,20.242066650390626,0.03023780696094036,-0.08124501258134842,-0.002290742937475443
1770952057049037000,20.261037109375,0.03390299528837204,-0.07574722915887833,0.006872228812426329
1770952057068007700,20.280007568359373,0.04062250629067421,-0.07269290834665298,-0.001679878099821508
1770952057086978300,20.298978271484376,0.05589412897825241,-0.07330377399921417,0.02458730712532997
1770952057105949000,20.317948974609376,0.05894844979047775,-0.08979712426662445,0.02519817277789116
1770952057124919300,20.336919189453123,0.060781046748161316,-0.09407317638397217,0.017256930470466614
1770952057143890000,20.355889892578126,0.06261363625526428,-0.08857539296150208,0.02764163166284561
1770952057162860300,20.3748603515625,0.0668896958231926,-0.09407317638397217,0.019700389355421066
1770952057181831000,20.393830810546874,0.0766635313630104,-0.11728604137897491,0.03802633285522461
1770952057200801500,20.412801513671877,0.06383536756038666,-0.11667517572641373,0.03191768378019333
1770952057219772000,20.43177197265625,0.060781046748161316,-0.1178968995809555,0.04108065739274025
1770952057238742500,20.450742431640624,0.05894844979047775,-0.12217295914888382,0.04046979174017906
1770952057257713200,20.469713134765627,0.05345066636800766,-0.12644900381565094,0.025809036567807198
1770952057276683500,20.48868359375,0.05894844979047775,-0.13683371245861053,0.04657844081521034
1770952057295654100,20.507654052734374,0.05711585655808449,-0.14233149588108063,0.04780016839504242
1770952057314624800,20.526624755859373,0.05345066636800766,-0.15027274191379547,0.02764163166284561
1770952057343080400,20.55508056640625,0.0461202897131443,-0.1637117564678192,0.025809036567807198
1770952057362050800,20.57405078125,0.05345066636800766,-0.17531819641590118,0.03741546720266342
1770952057381021400,20.593021484375,0.04978547990322113,-0.1649334877729416,0.025809036567807198
1770952057399992000,20.611991943359374,0.0565049909055233,-0.17287473380565643,0.025809036567807198
1770952057418962400,20.63096240234375,0.06811141967773438,-0.2003636509180069,0.05329795181751251
1770952057437933000,20.64993310546875,0.06383536756038666,-0.19425499439239502,0.03375028073787689
1770952057456903400,20.6689033203125,0.0668896958231926,-0.19303326308727264,0.01908952370285988
1770952057475874000,20.6878740234375,0.07422006875276566,-0.21319180727005005,0.011148282326757908
1770952057494844700,20.7068447265625,0.08338304609060287,-0.21991132199764252,0.023976443335413933
1770952057513815000,20.72581494140625,0.08155044913291931,-0.2156352698802948,0.027030766010284424
1770952057532785700,20.74478564453125,0.0821613147854805,-0.22357651591300964,0.030085090547800064
1770952057551756000,20.763756103515625,0.0821613147854805,-0.23457208275794983,0.033139415085315704
1770952057570726700,20.7827265625,0.07299833744764328,-0.22968515753746033,0.019700389355421066
1770952057589697300,20.801697265625,0.07605266571044922,-0.23762640357017517,0.01359174121171236
1770952057608667600,20.820667724609375,0.08277218043804169,-0.2370155304670334,0.02153298258781433
1770952057627638300,20.83963818359375,0.08338304609060287,-0.23396120965480804,0.02153298258781433
1770952057646608600,20.858608642578126,0.08765909820795059,-0.24556763470172882,0.029474224895238876
1770952057665579300,20.877579345703126,0.0974329337477684,-0.24923282861709595,0.03436114266514778
1770952057684550000,20.8965498046875,0.09682206809520721,-0.25045454502105713,0.025809036567807198
1770952057703520300,20.915520263671876,0.10354158282279968,-0.2528980076313019,0.04657844081521034
1770952057722490600,20.93449072265625,0.11087195575237274,-0.26022839546203613,0.039858926087617874
1770952057741461200,20.953461181640623,0.10965022444725037,-0.2675587832927704,0.03497200831770897
1770952057760431900,20.972431884765626,0.11148282140493393,-0.27366742491722107,0.04718930274248123
1770952057779402200,20.99140234375,0.1182023361325264,-0.28405213356018066,0.06856957077980042
1770952057798372900,21.010372802734373,0.11148282140493393,-0.28527384996414185,0.05085449293255806
1770952057817343200,21.02934326171875,0.11453714966773987,-0.2938259541988373,0.04046979174017906
1770952057836313900,21.04831396484375,0.11942406743764877,-0.3133736252784729,0.02764163166284561
1770952057855284200,21.0672841796875,0.11942406743764877,-0.3066541254520416,0.012370011769235134
1770952057874254800,21.0862548828125,0.11575887352228165,-0.3023780584335327,-0.007177661173045635
1770952057893225200,21.10522509765625,0.1285870373249054,-0.3347539007663727,0.012980876490473747
1770952057912195800,21.12419580078125,0.129197895526886,-0.328645259141922,0.0386371985077858
1770952057931166500,21.14316650390625,0.1285870373249054,-0.32192572951316833,0.02825249545276165
1770952057959622100,21.1716220703125,0.12675444781780243,-0.34086254239082336,0.014813470654189587
1770952057978592500,21.190592529296875,0.1340848207473755,-0.35735589265823364,0.03130681812763214
1770952057997563100,21.209563232421875,0.1328630894422531,-0.3610210716724396,0.009926552884280682
1770952058026018800,21.238018798828126,0.14019346237182617,-0.37323838472366333,-0.009621120058000088
1770952058044989200,21.2569892578125,0.14080433547496796,-0.37201663851737976,-0.016340631991624832
1770952058063959800,21.275959716796876,0.14263692498207092,-0.3738492429256439,-0.022449281066656113
1770952058082930200,21.29493017578125,0.14263692498207092,-0.3659079968929291,-0.014508038759231567
1770952058101900800,21.31390087890625,0.14263692498207092,-0.36835145950317383,-0.03283398225903511
1770952058120871200,21.33287109375,0.1536324918270111,-0.37323838472366333,0.012370011769235134
1770952058139841800,21.351841796875,0.1536324918270111,-0.38179048895835876,0.020311253145337105
1770952058158812200,21.370812255859374,0.15607595443725586,-0.39278605580329895,0.009315688163042068
1770952058177782800,21.38978271484375,0.1536324918270111,-0.40255987644195557,0.0025961752980947495
1770952058196753200,21.408753173828124,0.14996729791164398,-0.401949018239975,-0.0206166859716177
1770952058215723800,21.427723876953124,0.15607595443725586,-0.4105011224746704,0.0001527161948615685
1770952058234694100,21.446694091796875,0.15546508133411407,-0.41233372688293457,-0.009621120058000088
1770952058253664800,21.465664794921874,0.1597411334514618,-0.42088583111763,0.0025961752980947495
1770952058272635100,21.48463525390625,0.16523891687393188,-0.4355465769767761,0.02458730712532997
1770952058291605500,21.50360546875,0.16218459606170654,-0.4428769648075104,0.025809036567807198
1770952058310576000,21.522576171875,0.1640172004699707,-0.43432486057281494,0.04169152304530144
1770952058329546800,21.541546630859376,0.17195843160152435,-0.4526508152484894,0.04108065739274025
1770952058348517000,21.56051708984375,0.1737910360097885,-0.4618137776851654,0.05085449293255806
1770952058367487500,21.579487548828126,0.16707152128219604,-0.45326167345046997,0.033139415085315704
1770952058395943400,21.607943359375,0.16829325258731842,-0.46975502371788025,0.014813470654189587
1770952058414913800,21.626913818359377,0.1701258420944214,-0.46975502371788025,0.017867794260382652
1770952058433884200,21.64588427734375,0.1585194170475006,-0.472198486328125,-0.013897174037992954
1770952058452854800,21.664854736328124,0.1536324918270111,-0.4770853817462921,-0.022449281066656113
1770952058471825200,21.6838251953125,0.1542433500289917,-0.5033525824546814,-0.027336198836565018
1770952058490795800,21.702795654296875,0.15302163362503052,-0.4972439408302307,-0.005345067009329796
1770952058509766100,21.72176611328125,0.1493564397096634,-0.49052441120147705,-0.013897174037992954
1770952058528736800,21.74073681640625,0.1542433500289917,-0.5009090900421143,0.0038179049734026194
1770952058547707100,21.75970703125,0.15729768574237823,-0.5076286196708679,0.012370011769235134
1770952058566677500,21.778677490234376,0.1591302752494812,-0.5100721120834351,0.022754713892936707
1770952058585648000,21.797648193359375,0.16707152128219604,-0.5290089249610901,0.04169152304530144
1770952058604618500,21.816618408203126,0.1640172004699707,-0.5345066785812378,0.03252854943275452
1770952058623588900,21.8355888671875,0.16523891687393188,-0.5345066785812378,0.039858926087617874
1770952058642559500,21.8545595703125,0.1585194170475006,-0.535728394985199,0.03252854943275452
1770952058661529900,21.87352978515625,0.1585194170475006,-0.5442805290222168,0.04046979174017906
1770952058680500200,21.892500244140624,0.15302163362503052,-0.5442805290222168,0.04657844081521034
1770952058699470800,21.911470947265624,0.15668681263923645,-0.546113133430481,0.05757400393486023
1770952058718441200,21.930441162109375,0.1597411334514618,-0.5491674542427063,0.052076224237680435
1770952058737411800,21.949411865234374,0.16279546916484833,-0.554665207862854,0.02764163166284561
1770952058756382200,21.96838232421875,0.16584978997707367,-0.5497782826423645,0.01359174121171236
1770952058775352600,21.9873525390625,0.16829325258731842,-0.554665207862854,0.009926552884280682
1770952058794323200,22.0063232421875,0.1853974610567093,-0.5577195286750793,0.012980876490473747
1770952058813293600,22.02529345703125,0.18723005056381226,-0.546113133430481,-0.018173227086663246
1770952058832264000,22.044263916015623,0.2006690800189972,-0.5491674542427063,-0.009010255336761475
1770952058851234600,22.063234619140626,0.20311254262924194,-0.554665207862854,-0.017562363296747208
1770952058870205000,22.082204833984374,0.21166464686393738,-0.5516108870506287,-0.014508038759231567
1770952058889175300,22.10117529296875,0.22204934060573578,-0.5601630210876465,-0.001679878099821508
1770952058908146000,22.12014599609375,0.22754712402820587,-0.5656607747077942,-0.012675444595515728
1770952058927116300,22.1391162109375,0.22449280321598053,-0.5540543794631958,-0.028557928279042244
1770952058946086700,22.158086669921875,0.22327107191085815,-0.5442805290222168,-0.024892739951610565
1770952058965057300,22.177057373046875,0.23304490745067596,-0.5681042671203613,-0.027947064489126205
1770952058984027600,22.196027587890626,0.2458730787038803,-0.574212908744812,0.0038179049734026194
1770952059002998000,22.214998046875,0.23854269087314606,-0.555276095867157,0.017867794260382652
1770952059021968600,22.23396875,0.23182319104671478,-0.564439058303833,0.0001527161948615685
1770952059040939000,22.25293896484375,0.23365578055381775,-0.5754346251487732,0.02214384824037552
1770952059059909400,22.271909423828124,0.2306014597415924,-0.5876519083976746,0.010537417605519295
1770952059078879700,22.290879638671875,0.2202167510986328,-0.5797106623649597,-0.00045814859913662076
1770952059097850000,22.30985009765625,0.21471896767616272,-0.5778780579566956,0.009315688163042068
1770952059116820700,22.32882080078125,0.2110537886619568,-0.5882627964019775,0.006872228812426329
1770952059135791000,22.347791015625,0.21349723637104034,-0.6053670048713684,0.02458730712532997
1770952059154761500,22.366761474609376,0.1957821547985077,-0.5809323787689209,0.011759147047996521
1770952059173732000,22.385732177734376,0.20189081132411957,-0.5907062292098999,0.03558287397027016
1770952059192702500,22.404702392578123,0.1957821547985077,-0.6004800796508789,0.03497200831770897
1770952059211672800,22.4236728515625,0.19822561740875244,-0.5900954008102417,0.06001746281981468
1770952059230643200,22.442643310546874,0.19089524447917938,-0.5937605500221252,0.04046979174017906
1770952059249613800,22.46161376953125,0.19700388610363007,-0.6010909676551819,0.05818486958742142
1770952059268584200,22.480584228515625,0.19700388610363007,-0.5986474752426147,0.05513054504990578
1770952059287554600,22.499554443359376,0.20127993822097778,-0.5943714380264282,0.052687086164951324
1770952059306525000,22.51852490234375,0.20861032605171204,-0.5998691916465759,0.03802633285522461
1770952059325495300,22.537495361328126,0.20433427393436432,-0.6035344004631042,0.02153298258781433
1770952059344466000,22.5564658203125,0.19883649051189423,-0.6145299673080444,0.0062613640911877155
1770952059363436300,22.575436279296873,0.19883649051189423,-0.6151408553123474,0.004428769461810589
1770952059391892000,22.60389208984375,0.19700388610363007,-0.6169734001159668,0.027030766010284424
1770952059410862300,22.6228623046875,0.18906265497207642,-0.6084213256835938,0.004428769461810589
1770952059429832700,22.641832763671875,0.1951712965965271,-0.6310232877731323,0.009315688163042068
1770952059448803000,22.660802978515626,0.19761475920677185,-0.6261364221572876,0.0154243353754282
1770952059467773400,22.6797734375,0.1951712965965271,-0.6163625717163086,0.02458730712532997
1770952059486744000,22.698744140625,0.19822561740875244,-0.6212494969367981,0.014202605932950974
1770952059505714400,22.71771435546875,0.20311254262924194,-0.627968966960907,0.006872228812426329
1770952059524684800,22.736684814453124,0.20189081132411957,-0.6175842881202698,0.009926552884280682
1770952059543655200,22.7556552734375,0.2055560052394867,-0.6249146461486816,-0.00045814859913662076
1770952059562625500,22.77462548828125,0.20738859474658966,-0.6273581385612488,-0.0102319847792387
1770952059581596200,22.79359619140625,0.20127993822097778,-0.6126973628997803,-0.0206166859716177
1770952059600566500,22.81256640625,0.21288637816905975,-0.6114756464958191,0.0001527161948615685
1770952059619537000,22.831536865234376,0.22327107191085815,-0.5974257588386536,0.02153298258781433
1770952059638507300,22.85050732421875,0.23915356397628784,-0.6096430420875549,0.036804601550102234
1770952059657477600,22.8694775390625,0.24953825771808624,-0.6261364221572876,0.039248060435056686
1770952059676448000,22.888447998046875,0.23793183267116547,-0.6035344004631042,-0.016340631991624832
1770952059695418600,22.907418701171874,0.2519817352294922,-0.6010909676551819,-0.005955931730568409
1770952059714389000,22.926388916015625,0.25931209325790405,-0.6169734001159668,-0.0102319847792387
1770952059733359400,22.945359375,0.25381430983543396,-0.6090322136878967,-0.0102319847792387
1770952059752329700,22.964329833984376,0.2721402645111084,-0.618806004524231,0.033139415085315704
1770952059780785400,22.992785400390623,0.28069236874580383,-0.6090322136878967,0.03375028073787689
1770952059799755800,23.011755859375,0.29474225640296936,-0.6169734001159668,0.05451968312263489
1770952059818726100,23.03072607421875,0.28008151054382324,-0.5949822664260864,0.027030766010284424
1770952059837696500,23.049696533203125,0.28985533118247986,-0.6071996092796326,0.029474224895238876
1770952059856667000,23.0686669921875,0.2922987937927246,-0.6133082509040833,0.030695954337716103
1770952059875637500,23.087637451171876,0.2929096519947052,-0.6071996092796326,0.049632761627435684
1770952059894608000,23.10660791015625,0.2874118685722351,-0.6169734001159668,0.04535670951008797
1770952059913578200,23.125578125,0.28069236874580383,-0.6151408553123474,0.05146535858511925
1770952059932548600,23.144548583984374,0.26542073488235474,-0.6157516837120056,0.033139415085315704
1770952059951519000,23.16351904296875,0.25320345163345337,-0.6249146461486816,0.014813470654189587
1770952059970489300,23.1824892578125,0.2507599890232086,-0.6267472505569458,0.014813470654189587
1770952059989459700,23.201459716796876,0.23548837006092072,-0.6340776681900024,0.016646064817905426
1770952060017915400,23.229915283203123,0.2367101013660431,-0.6401863098144531,0.020311253145337105
1770952060036885800,23.2488857421875,0.23732095956802368,-0.6395754218101501,0.01908952370285988
1770952060055856000,23.267856201171874,0.2415970265865326,-0.6316341757774353,0.01908952370285988
1770952060074826500,23.286826416015625,0.250149130821228,-0.6499601006507874,0.036193739622831345
1770952060093796900,23.305796875,0.24037529528141022,-0.6420188546180725,0.030695954337716103
1770952060112767200,23.324767333984376,0.24037529528141022,-0.647516667842865,0.039248060435056686
1770952060131737600,23.343737548828123,0.24892739951610565,-0.656679630279541,0.052687086164951324
1770952060150708000,23.3627080078125,0.24404047429561615,-0.6432406306266785,0.030085090547800064
1770952060169678300,23.38167822265625,0.24892739951610565,-0.6499601006507874,0.027030766010284424
