time,seconds_elapsed,z,y,x
1770952036950316300,0.16231640625,6.898507595062256,7.57806921005249,-1.7778671979904175
1770952036969287200,0.181287109375,8.003992080688477,6.192625045776367,-0.760917603969574
1770952036988257800,0.2002578125,8.980263710021973,5.795416355133057,-0.16271193325519562
1770952037007228400,0.219228515625,8.657232284545898,5.843272686004639,-0.5048855543136597
1770952037026199000,0.238198974609375,7.444071292877197,5.0464630126953125,-1.435693621635437
1770952037045169700,0.257169677734375,7.322037220001221,5.544169902801514,-0.3038884699344635
1770952037064140500,0.276140625,7.735995769500732,6.936792850494385,0.23449662327766418
1770952037083111200,0.295111083984375,8.008777618408203,6.589833736419678,0.24167509377002716
1770952037102081800,0.314081787109375,8.58066177368164,5.32403039932251,0.3732803463935852
1770952037121052700,0.333052734375,7.381857872009277,5.163711071014404,0.43549370765686035
1770952037140023300,0.352023193359375,7.355536937713623,6.235695838928223,-0.23449662327766418
1770952037158994200,0.370994140625,7.2430739402771,5.862415313720703,0.17706887423992157
1770952037177964800,0.38996484375,7.6737823486328125,5.54177713394165,0.9403793215751648
1770952037196935400,0.408935302734375,7.9968132972717285,5.467599868774414,0.8925228714942932
1770952037215906300,0.42790625,8.468199729919434,5.570491313934326,0.4570291340351105
1770952037234877000,0.446876953125,8.86062240600586,6.7070817947387695,-1.8496519327163696
1770952037253847600,0.46584765625,8.025527000427246,6.790830612182617,0.19142581522464752
1770952037272818400,0.484818359375,7.058826923370361,6.10169792175293,0.5264210104942322
1770952037291789000,0.5037890625,6.58265495300293,5.343173027038574,1.5146567821502686
1770952037310760000,0.522760009765625,7.752745151519775,5.357530117034912,1.2634103298187256
1770952037329730600,0.54173046875,9.34875774383545,7.247859954833984,0.12921242415905
1770952037348701400,0.560701416015625,8.243273735046387,8.147561073303223,0.24406790733337402
1770952037367672000,0.579672119140625,8.350951194763184,6.946363925933838,1.3399807214736938
1770952037386643000,0.598642822265625,7.192824840545654,4.436293125152588,0.3756731450557709
1770952037405613800,0.61761376953125,6.276373863220215,6.831508636474609,0.6891329288482666
1770952037424584400,0.63658447265625,4.977071285247803,7.171289443969727,0.8973084688186646
1770952037443555000,0.65555517578125,4.677968502044678,7.379465103149414,0.7010970115661621
1770952037462526000,0.67452587890625,6.092126369476318,8.059026718139648,1.8472590446472168
1770952037481496800,0.693496826171875,6.692724704742432,8.008777618408203,2.541177749633789
1770952037500467700,0.7124677734375,5.79063081741333,7.338787078857422,1.8472590446472168
1770952037519438300,0.731438232421875,4.689932346343994,7.401000499725342,1.4021940231323242
1770952037538409200,0.7504091796875,5.405386447906494,8.154739379882812,2.352144718170166
1770952037557380000,0.769380126953125,5.690132141113281,7.396214962005615,1.9764715433120728
1770952037576350700,0.788350830078125,5.92223596572876,7.463213920593262,2.5387847423553467
1770952037595321600,0.807321533203125,6.484549522399902,8.157132148742676,2.5052852630615234
1770952037614292500,0.82629248046875,6.348158359527588,7.362715244293213,2.242074728012085
1770952037633263000,0.84526318359375,5.589633464813232,7.436892986297607,1.9645073413848877
1770952037652234000,0.86423388671875,5.72123908996582,7.288537979125977,2.012363910675049
1770952037671204900,0.883204833984375,6.446264266967773,7.013363361358643,1.8113667964935303
1770952037690175500,0.902175537109375,6.654439926147461,7.058826923370361,2.5148565769195557
1770952037709146400,0.921146484375,6.295516490936279,7.35314416885376,2.6273193359375
1770952037728117200,0.9401171875,6.089733600616455,7.085147857666016,2.297109842300415
1770952037747088100,0.959088134765625,5.685346603393555,7.436892986297607,2.4335005283355713
1770952037766059000,0.97805908203125,5.111069202423096,7.5565338134765625,2.2229323387145996
1770952037785030000,0.99702978515625,5.254638671875,6.7621169090271,1.801795482635498
1770952037804000500,1.01600048828125,5.874379634857178,6.661618232727051,1.9764715433120728
1770952037822971400,1.034971435546875,6.809973239898682,7.377072334289551,2.4287149906158447
1770952037841942300,1.0539423828125,6.314659118652344,6.92482852935791,2.562713146209717
1770952037860913200,1.0729130859375,5.465207099914551,6.546762943267822,2.251646041870117
1770952037879884000,1.091884033203125,5.197210788726807,6.625725746154785,1.9142581224441528
1770952037898855000,1.11085498046875,6.269195556640625,6.546762943267822,2.60339093208313
1770952037917825800,1.12982568359375,7.501499176025391,5.788238048553467,3.7471601963043213
1770952037936796700,1.148796630859375,6.503692150115967,5.78345251083374,3.1513473987579346
1770952037955767600,1.167767578125,4.991427898406982,6.51326322555542,0.7800601720809937
1770952037974738400,1.186738525390625,4.826323509216309,4.0319061279296875,2.155933141708374
1770952037993709300,1.205709228515625,8.068597793579102,5.190032482147217,5.615954875946045
1770952038012680200,1.22468017578125,11.353943824768066,6.247660160064697,6.027520179748535
1770952038031651000,1.243651123046875,11.56690502166748,6.876972198486328,7.987242221832275
1770952038050622000,1.2626220703125,4.266402721405029,8.556734085083008,-1.5170495510101318
1770952038069592800,1.2815927734375,3.7495529651641846,1.8233308792114258,1.1988041400909424
1770952038088563700,1.300563720703125,6.45822811126709,3.4480574131011963,0.10289137065410614
1770952038107534600,1.31953466796875,6.422336101531982,2.3473589420318604,0.7824530005455017
1770952038126505500,1.33850537109375,2.6871397495269775,2.541177749633789,1.6917256116867065
1770952038145476400,1.357476318359375,0.17706887423992157,3.31884503364563,3.88594388961792
1770952038164447200,1.376447265625,1.2059825658798218,2.4047868251800537,3.6634113788604736
1770952038183418000,1.395418212890625,0.1986042857170105,2.062613010406494,5.335994720458984
1770952038202389200,1.41438916015625,4.752145767211914,0.550349235534668,4.910071849822998
1770952038221359900,1.43335986328125,-2.8426733016967773,-0.397208571434021,8.051848411560059
1770952038240331000,1.4523310546875,-1.0959128141403198,-0.8111668825149536,10.705488204956055
1770952038259302000,1.471302001953125,3.177668571472168,-0.6963114142417908,11.205588340759277
1770952038278272800,1.490272705078125,4.53200626373291,-0.916451096534729,11.227124214172363
1770952038297243600,1.50924365234375,6.197410583496094,-0.8733802437782288,11.60519027709961
1770952038316214800,1.52821484375,3.895515203475952,-1.5625132322311401,12.409177780151367
1770952038335185700,1.547185546875,25.194028854370117,18.230915069580078,37.658241271972656
1770952038354156500,1.566156494140625,11.995220184326172,-0.849452018737793,13.758729934692383
1770952038373127400,1.58512744140625,3.373879909515381,-3.7782669067382812,9.695717811584473
1770952038392098300,1.604098388671875,2.967100143432617,-1.6510475873947144,9.157332420349121
1770952038411069400,1.6230693359375,1.7611174583435059,-1.9908283948898315,8.116454124450684
1770952038430040300,1.642040283203125,-1.7778671979904175,-4.883750915527344,3.730410575866699
1770952038449011500,1.661011474609375,2.273181438446045,-8.164310455322266,5.01296329498291
1770952038467982300,1.679982421875,7.5804619789123535,-6.032305717468262,8.305487632751465
1770952038486953200,1.698953125,6.802794933319092,-4.000799655914307,9.367900848388672
1770952038505924000,1.717924072265625,4.59421968460083,-2.737389087677002,9.992427825927734
1770952038524895200,1.736895263671875,4.890929698944092,-2.66560435295105,9.4660062789917
1770952038543866000,1.7558662109375,6.857829570770264,-2.9072794914245605,7.678567886352539
1770952038562837000,1.7748369140625,6.589833736419678,-3.359523057937622,4.125226020812988
1770952038581808000,1.79380810546875,8.260024070739746,-8.00638484954834,1.1724830865859985
1770952038600779000,1.812779052734375,9.312865257263184,-7.874779224395752,2.0506489276885986
1770952038619750000,1.83175,7.568498134613037,-7.456035137176514,3.1034910678863525
1770952038638721000,1.850720947265625,3.3882367610931396,-7.355536937713623,4.613361835479736
1770952038657692000,1.86969189453125,3.1824541091918945,-7.0995049476623535,6.0849480628967285
1770952038676663000,1.8886630859375,3.8979079723358154,-8.934800148010254,6.235695838928223
1770952038695634000,1.907634033203125,3.184846878051758,-8.001599311828613,6.238088607788086
1770952038714605000,1.92660498046875,1.852044701576233,-7.901100158691406,5.831308841705322
1770952038733576000,1.945575927734375,2.6871397495269775,-8.102097511291504,5.3934221267700195
1770952038752547000,1.964547119140625,3.3786656856536865,-8.568697929382324,5.2283172607421875
1770952038771518000,1.98351806640625,2.2372891902923584,-8.965906143188477,4.151547431945801
1770952038790488800,2.00248876953125,0.8111668825149536,-9.858428955078125,3.2446675300598145
1770952038809460000,2.0214599609375,1.0648061037063599,-9.987641334533691,2.0099709033966064
1770952038828431000,2.04043115234375,23.404197692871094,-1.9621145725250244,29.290542602539062
1770952038847402000,2.059402099609375,-5.6590256690979,-11.277373313903809,0.8638089895248413
1770952038866373000,2.078373046875,-0.9068797826766968,-10.1814603805542,-0.23449662327766418
1770952038885344000,2.097343994140625,4.240081787109375,-9.91107177734375,2.823530673980713
1770952038904315100,2.116315185546875,4.766502857208252,-11.643474578857422,1.7228323221206665
1770952038923286000,2.1352861328125,-0.6317051649093628,-14.390435218811035,4.046263217926025
1770952038942257200,2.154257080078125,1.1174482107162476,-13.584053993225098,4.034298896789551
1770952038961228300,2.173228271484375,1.4404792785644531,-11.234302520751953,3.0484559535980225
1770952038980199200,2.19219921875,-0.23210379481315613,-8.104490280151367,5.539384365081787
1770952038999170300,2.21117041015625,2.5914268493652344,-6.908079147338867,4.991427898406982
1770952039018141200,2.23014111328125,4.019941806793213,-6.774080753326416,4.984249591827393
1770952039037112300,2.2491123046875,3.799802303314209,-7.810173034667969,3.0723843574523926
1770952039056083200,2.268083251953125,3.046063184738159,-9.724431037902832,1.6175481081008911
1770952039075054300,2.287054443359375,1.4452649354934692,-10.229316711425781,1.3854442834854126
1770952039094025500,2.306025390625,3.345165967941284,-9.090332984924316,-2.785245656967163
1770952039112996600,2.32499658203125,1.6295121908187866,-8.724231719970703,0.06699903309345245
1770952039131967500,2.343967529296875,-0.9451649188995361,-8.676374435424805,2.998206853866577
1770952039150938600,2.362938720703125,-1.5649060010910034,-9.284152030944824,2.5986053943634033
1770952039169909800,2.38190966796875,-3.1202406883239746,-8.793622970581055,2.823530673980713
1770952039188880600,2.400880615234375,3.304488182067871,-9.798608779907227,24.004796981811523
1770952039207851800,2.419851806640625,-4.271188259124756,-5.694917678833008,-3.5844483375549316
1770952039226823000,2.438822998046875,3.5533416271209717,-11.56690502166748,3.493520975112915
1770952039245794000,2.4577939453125,5.450850009918213,-10.226923942565918,-2.5052852630615234
1770952039264765000,2.476764892578125,1.0552347898483276,-5.723631858825684,-2.801995277404785
1770952039283736000,2.495736083984375,6.190232276916504,-14.933606147766113,-0.014356935396790504
1770952039302707200,2.514707275390625,3.4265220165252686,-15.034104347229004,3.7495529651641846
1770952039321678300,2.53367822265625,2.218146562576294,-11.897113800048828,2.5938198566436768
1770952039340649200,2.552649169921875,2.407179594039917,-10.794022560119629,2.0338993072509766
1770952039359620400,2.571620361328125,2.1272194385528564,-10.119247436523438,1.820937991142273
1770952039378591500,2.590591552734375,1.5098711252212524,-9.363115310668945,2.146361827850342
1770952039397562600,2.609562744140625,1.5912270545959473,-9.76989459991455,2.038684844970703
1770952039416533800,2.62853369140625,1.6821542978286743,-9.987641334533691,2.043470621109009
1770952039435505000,2.6475048828125,2.093719720840454,-9.89432144165039,2.1535403728485107
1770952039454475800,2.666475830078125,1.9980069398880005,-9.53061294555664,2.366501569747925
1770952039473447000,2.685447021484375,1.9932212829589844,-9.255437850952148,2.2612173557281494
1770952039492418000,2.70441796875,2.589034080505371,-9.047262191772461,2.108076810836792
1770952039511389200,2.72338916015625,3.060420274734497,-8.894122123718262,2.297109842300415
1770952039530360300,2.7423603515625,6.86261510848999,-4.175475597381592,5.367101192474365
1770952039549331500,2.76133154296875,9.34157943725586,-8.965906143188477,7.81974458694458
1770952039568302600,2.780302490234375,2.179861545562744,-10.85145092010498,2.7732813358306885
1770952039587273500,2.7992734375,3.0317063331604004,-8.319844245910645,1.6295121908187866
1770952039606244600,2.81824462890625,2.926422119140625,-9.066405296325684,2.2755744457244873
1770952039625215700,2.8372158203125,3.2374889850616455,-9.248259544372559,2.352144718170166
1770952039644187000,2.856186767578125,3.7471601963043213,-8.870193481445312,1.667797327041626
1770952039663158000,2.875157958984375,3.900300979614258,-9.525827407836914,1.8783657550811768
1770952039682129200,2.894129150390625,3.81655216217041,-9.363115310668945,1.770688772201538
1770952039701100300,2.913100341796875,3.665804386138916,-9.075976371765137,1.5696916580200195
1770952039720071400,2.932071533203125,3.3930225372314453,-9.269794464111328,1.8233308792114258
1770952039739042600,2.95104248046875,3.462414264678955,-9.06401252746582,1.3782658576965332
1770952039758013700,2.970013671875,4.144368648529053,-8.72183895111084,1.828116536140442
1770952039776984800,2.98898486328125,3.359523057937622,-8.566305160522461,1.7419748306274414
1770952039795956000,3.0079560546875,3.1250264644622803,-8.628518104553223,1.4835500717163086
1770952039814927000,3.026927001953125,3.792623996734619,-8.745766639709473,1.7467604875564575
1770952039833898200,3.045898193359375,4.187439441680908,-8.47298526763916,1.5840486288070679
1770952039852869400,3.064869384765625,3.5844483375549316,-8.645268440246582,1.6199408769607544
1770952039871840500,3.083840576171875,3.7423746585845947,-8.760123252868652,1.5361921787261963
1770952039890811600,3.102811767578125,4.005585193634033,-8.559126853942871,1.5840486288070679
1770952039909782800,3.12178271484375,3.7328033447265625,-8.528019905090332,1.6845471858978271
1770952039928754000,3.14075390625,2.720639228820801,-9.346364974975586,1.667797327041626
1770952039947725000,3.15972509765625,3.7016966342926025,-9.523433685302734,1.124626636505127
1770952039966696200,3.1786962890625,4.572684288024902,-9.798608779907227,1.2203395366668701
1770952039985667600,3.19766748046875,2.940778970718384,-9.489934921264648,1.5242279767990112
1770952040004638700,3.216638671875,3.1824541091918945,-8.9850492477417,1.2323036193847656
1770952040023609900,3.23560986328125,3.6131622791290283,-9.214759826660156,0.6939185857772827
1770952040042581000,3.2545810546875,3.3092737197875977,-9.765109062194824,1.3543375730514526
1770952040061552000,3.27355224609375,3.0245277881622314,-9.461220741271973,1.0145567655563354
1770952040080523300,3.292523193359375,4.685146808624268,-9.200403213500977,1.1198409795761108
1770952040099494400,3.311494384765625,3.4432718753814697,-9.219545364379883,1.7874385118484497
1770952040118465500,3.330465576171875,3.562912940979004,-8.48016357421875,0.727418065071106
1770952040137436700,3.349436767578125,3.538984775543213,-8.772088050842285,1.5361921787261963
1770952040156408000,3.368407958984375,3.6777684688568115,-8.38684368133545,1.9621145725250244
1770952040175379200,3.387379150390625,4.005585193634033,-8.535198211669922,1.368694543838501
1770952040194350300,3.406350341796875,3.483949661254883,-8.82951545715332,1.6510475873947144
1770952040213321500,3.425321533203125,2.342573404312134,-9.126225471496582,1.4213366508483887
1770952040232292600,3.444292724609375,4.235296249389648,-9.276973724365234,1.3926228284835815
1770952040251263700,3.463263671875,2.8761727809906006,-9.734002113342285,1.8352949619293213
1770952040270235100,3.482235107421875,2.9694929122924805,-9.638289451599121,0.6604190468788147
1770952040289206300,3.501206298828125,4.642076015472412,-9.083154678344727,1.770688772201538
1770952040308177400,3.520177490234375,2.9072794914245605,-8.621339797973633,1.495514154434204
1770952040327148500,3.5391484375,4.206582069396973,-9.142974853515625,1.069591760635376
1770952040346119700,3.55811962890625,4.426722049713135,-8.956335067749023,1.7850457429885864
1770952040365091000,3.577091064453125,3.649054527282715,-8.896514892578125,1.1413763761520386
1770952040384062200,3.596062255859375,3.460021495819092,-8.724231719970703,1.3399807214736938
1770952040403033300,3.615033447265625,4.144368648529053,-9.116654396057129,1.6031911373138428
1770952040422004500,3.63400439453125,3.579662561416626,-8.975478172302246,1.1772687435150146
1770952040440976000,3.652975830078125,3.1752755641937256,-9.702896118164062,1.6319050788879395
1770952040459947000,3.671947021484375,3.28773832321167,-8.9850492477417,1.6055840253829956
1770952040478918100,3.690918212890625,2.861815929412842,-9.21715259552002,1.0648061037063599
1770952040497889500,3.7098896484375,3.304488182067871,-8.863015174865723,1.5960127115249634
1770952040516860700,3.728860595703125,4.47697114944458,-8.970691680908203,1.0815558433532715
1770952040535831800,3.747831787109375,2.9479575157165527,-9.504291534423828,1.521835207939148
1770952040554803200,3.76680322265625,3.2207393646240234,-9.154939651489258,1.3926228284835815
1770952040573774300,3.7857744140625,4.216153621673584,-8.796015739440918,1.2658032178878784
1770952040592745500,3.804745361328125,2.768495798110962,-8.547162055969238,1.797009825706482
1770952040611716900,3.823716796875,3.0891339778900146,-8.910871505737305,1.210768222808838
1770952040630688000,3.84268798828125,4.096512317657471,-9.667003631591797,0.6747759580612183
1770952040649659100,3.8616591796875,3.8021950721740723,-9.798608779907227,1.153340458869934
1770952040668630500,3.880630615234375,3.3236305713653564,-9.365508079528809,1.5074782371520996
1770952040687601700,3.8996015625,3.3690943717956543,-8.48734188079834,0.9595218896865845
1770952040706572800,3.91857275390625,3.2997024059295654,-8.63330364227295,0.8542376756668091
1770952040725544000,3.9375439453125,3.1561331748962402,-8.554341316223145,0.7728816866874695
1770952040744515300,3.956515380859375,2.9838497638702393,-8.74337387084961,1.3615161180496216
1770952040763486500,3.975486572265625,3.4552359580993652,-9.449256896972656,1.5601203441619873
1770952040782457900,3.994457763671875,4.687539577484131,-8.645268440246582,0.5048855543136597
1770952040801429000,4.013428955078125,3.531806230545044,-9.20997428894043,1.246660590171814
1770952040820400000,4.032400146484375,3.658625841140747,-9.394221305847168,0.9260223507881165
1770952040839371500,4.05137158203125,4.362115859985352,-10.04267692565918,0.5240281820297241
1770952040858342700,4.0703427734375,3.9984066486358643,-9.753145217895508,1.7180466651916504
1770952040877314000,4.08931396484375,3.4097721576690674,-9.147761344909668,0.7920243144035339
1770952040896285200,4.10828515625,3.460021495819092,-9.839286804199219,1.1437692642211914
1770952040915256600,4.127256591796875,3.8045880794525146,-9.616754531860352,1.0480563640594482
1770952040934227700,4.146227783203125,3.014956474304199,-9.882357597351074,1.0360921621322632
1770952040953198800,4.16519873046875,3.6227335929870605,-9.190832138061523,1.4404792785644531
1770952040972170200,4.184170166015625,3.8572301864624023,-9.128618240356445,0.8566305041313171
1770952040991141400,4.203141357421875,4.043870449066162,-8.760123252868652,1.428515076637268
1770952041010112500,4.222112548828125,3.5844483375549316,-8.398807525634766,1.074377417564392
1770952041029084000,4.241083984375,4.089334011077881,-9.121439933776855,0.794417142868042
1770952041057540900,4.269540771484375,3.3930225372314453,-9.293723106384277,0.7513462901115417
1770952041076512000,4.288511962890625,3.105883836746216,-8.166703224182129,1.1222338676452637
1770952041095483400,4.3074833984375,2.6249263286590576,-8.374878883361816,0.6221339106559753
1770952041114454500,4.32645458984375,3.3690943717956543,-9.111868858337402,0.7154539823532104
1770952041133426000,4.345426025390625,3.5988051891326904,-8.951549530029297,0.672383189201355
1770952041152397000,4.36439697265625,2.9958138465881348,-8.839086532592773,0.31824541091918945
1770952041171368400,4.383368408203125,3.675375461578369,-8.812766075134277,0.9427721500396729
1770952041190339600,4.402339599609375,3.6155550479888916,-8.937192916870117,0.20817556977272034
1770952041209310700,4.421310791015625,4.089334011077881,-8.97787094116211,0.6269195079803467
1770952041228282000,4.4402822265625,3.7543387413024902,-8.544769287109375,0.8470591902732849
1770952041247253500,4.45925341796875,2.517249345779419,-8.702695846557617,0.4498506486415863
1770952041266224600,4.478224609375,3.0005996227264404,-8.669196128845215,0.8135597109794617
1770952041285196000,4.497196044921875,2.840280532836914,-9.573683738708496,-0.1052841991186142
1770952041304167200,4.516167236328125,2.981456995010376,-9.755537986755371,0.3397808074951172
1770952041323138300,4.53513818359375,3.713660717010498,-8.858229637145996,0.8279166221618652
1770952041342109700,4.554109619140625,2.9551360607147217,-9.219545364379883,0.33020952343940735
1770952041361080800,4.573080810546875,3.3236305713653564,-9.45164966583252,0.576670229434967
1770952041380052200,4.59205224609375,4.342973232269287,-8.958727836608887,0.3445664644241333
1770952041399023600,4.611023681640625,3.2374889850616455,-8.951549530029297,0.4259224236011505
1770952041417994800,4.629994873046875,4.3070807456970215,-9.150154113769531,0.5072783827781677
1770952041436966100,4.648966064453125,4.742574691772461,-9.109476089477539,0.12442677468061447
1770952041455937300,4.667937255859375,4.00319242477417,-9.600004196166992,0.44745782017707825
1770952041474908700,4.68690869140625,3.91705060005188,-9.65503978729248,0.22971096634864807
1770952041493879800,4.7058798828125,3.5198421478271484,-9.963713645935059,0
1770952041522336800,4.734336669921875,2.713460922241211,-9.231510162353516,0.4378865361213684
1770952041541308200,4.75330810546875,3.6610186100006104,-9.207581520080566,0.23688943684101105
1770952041579250700,4.791250732421875,3.2350962162017822,-9.418149948120117,0.34217363595962524
1770952041598221800,4.810221923828125,3.7016966342926025,-8.645268440246582,0.24885354936122894
1770952041617193200,4.829193115234375,3.383451223373413,-8.82233715057373,0.15314064919948578
1770952041636164400,4.848164306640625,3.4337005615234375,-8.884550094604492,0.11964113265275955
1770952041655135700,4.8671357421875,3.0867412090301514,-9.365508079528809,0.46899324655532837
1770952041674107100,4.886107177734375,3.87876558303833,-8.997013092041016,-0.0933200865983963
1770952041693078300,4.905078369140625,2.352144718170166,-9.078369140625,0.760917603969574
1770952041712049700,4.924049560546875,2.1822543144226074,-8.903693199157715,-0.04785645380616188
1770952041740506600,4.952506591796875,3.0173492431640625,-9.858428955078125,0.4331009089946747
1770952041759477800,4.971477783203125,3.242274761199951,-9.76989459991455,0.519242525100708
1770952041778449200,4.99044921875,4.273581027984619,-9.736394882202148,-0.3565305769443512
1770952041797420300,5.009420166015625,2.9527430534362793,-9.781859397888184,0.4091726839542389
1770952041816391700,5.0283916015625,3.7256247997283936,-7.743174076080322,0.5623133182525635
1770952041835363000,5.047363037109375,4.802394866943359,-8.769695281982422,-0.32303106784820557
1770952041854334200,5.066334228515625,3.7016966342926025,-9.920642852783203,0.727418065071106
1770952041873305600,5.0853056640625,3.1106693744659424,-9.396614074707031,0.4905286431312561
1770952041892277000,5.104277099609375,3.8907296657562256,-9.829715728759766,-0.11964113265275955
1770952041911248100,5.123248046875,3.7974095344543457,-9.626325607299805,0.5623133182525635
1770952041930219300,5.14221923828125,3.6059837341308594,-9.286544799804688,-0.11964113265275955
1770952041949190700,5.161190673828125,3.4504501819610596,-9.485149383544922,0.4570291340351105
1770952041968162000,5.180162109375,3.625126361846924,-10.021141052246094,-0.3086741268634796
1770952041987133400,5.199133544921875,3.840480327606201,-9.848857879638672,0.4713860750198364
1770952042006104600,5.2181044921875,4.398007869720459,-8.401200294494629,0.17946170270442963
1770952042025075700,5.23707568359375,3.1513473987579346,-9.609575271606445,-0.4953143000602722
1770952042044047000,5.256047119140625,3.651447296142578,-8.93958568572998,-0.10767702013254166
1770952042063018500,5.2750185546875,2.9288148880004883,-8.516056060791016,-0.4977070987224579
1770952042081990000,5.293989990234375,2.414358139038086,-8.597412109375,0.2727817893028259
1770952042100961000,5.3129609375,3.22552490234375,-9.284152030944824,0.48574298620224
1770952042119932400,5.331932373046875,4.051048755645752,-9.762716293334961,-0.349352091550827
1770952042138903600,5.350903564453125,2.895315408706665,-9.255437850952148,0.46420758962631226
1770952042157875000,5.369875,2.3569302558898926,-8.894122123718262,0.550349235534668
1770952042176846300,5.388846435546875,3.730410575866699,-8.322237014770508,0.035892341285943985
1770952042195817500,5.4078173828125,4.46979284286499,-8.803194046020508,0.16031911969184875
1770952042214788900,5.426788818359375,2.8666014671325684,-9.442078590393066,0.5168496966362
1770952042233760300,5.44576025390625,4.199403762817383,-8.482556343078613,0.8398807644844055
1770952042252731400,5.4647314453125,3.507878065109253,-7.977670669555664,0.07178468257188797
1770952042271702800,5.483702880859375,3.0628130435943604,-9.389435768127441,0.2392822653055191
1770952042290674200,5.502674072265625,3.053241729736328,-9.53779125213623,0.24406790733337402
1770952042309645300,5.521645263671875,3.7471601963043213,-9.7005033493042,-0.36610186100006104
1770952042328616700,5.54061669921875,3.2350962162017822,-9.119047164916992,0.6771687865257263
1770952042347588000,5.559588134765625,3.0652058124542236,-8.683553695678711,0.19381862878799438
1770952042366559200,5.578559326171875,3.656233072280884,-9.439684867858887,-0.007178467698395252
1770952042385530600,5.597530517578125,4.07258415222168,-9.42054271697998,0.1579262912273407
1770952042404501800,5.616501708984375,3.7663028240203857,-9.159725189208984,0.605384111404419
1770952042423473200,5.63547314453125,3.2757742404937744,-7.95134973526001,1.0265209674835205
1770952042442444500,5.654444580078125,4.443471431732178,-9.779465675354004,-0.31106695532798767
1770952042461416000,5.673416015625,3.8213376998901367,-9.66939640045166,0.2967100143432617
1770952042480387000,5.692386962890625,3.0245277881622314,-8.800801277160645,0.17228323221206665
1770952042499358500,5.7113583984375,3.7782669067382812,-8.537590980529785,0.20338992774486542
1770952042518329600,5.73032958984375,3.680161237716675,-10.566704750061035,0.31824541091918945
1770952042537301200,5.74930126953125,3.964907169342041,-9.915857315063477,0.038285162299871445
1770952042556272400,5.7682724609375,4.027120590209961,-9.511469841003418,0.3924229145050049
1770952042575243800,5.787243896484375,3.713660717010498,-8.97787094116211,0.6963114142417908
1770952042594215000,5.80621484375,3.4911282062530518,-8.571090698242188,-0.6891329288482666
1770952042613186300,5.825186279296875,3.7088751792907715,-8.800801277160645,-0.48095735907554626
1770952042632157700,5.84415771484375,3.5581271648406982,-9.681360244750977,0.0933200865983963
1770952042651128800,5.86312890625,4.058227062225342,-9.906285285949707,0.11964113265275955
1770952042670100200,5.882100341796875,3.7806596755981445,-9.34875774383545,-0.39960137009620667
1770952042689071600,5.901071533203125,3.2470602989196777,-9.31047248840332,0.014356935396790504
1770952042708043000,5.92004296875,2.691925525665283,-9.159725189208984,0.41874396800994873
1770952042727014100,5.93901416015625,3.507878065109253,-8.855836868286133,0.15553347766399384
1770952042745985500,5.957985595703125,3.586841106414795,-9.379864692687988,0.3278166949748993
1770952042764957000,5.97695703125,3.6394832134246826,-9.001798629760742,-0.1698904037475586
1770952042783928300,5.99592822265625,3.1106693744659424,-9.80100154876709,0.007178467698395252
1770952042802899500,6.0148994140625,4.00319242477417,-9.193224906921387,0.4737788736820221
1770952042821870800,6.033870849609375,3.1202406883239746,-8.295916557312012,0.363709032535553
1770952042840842200,6.05284228515625,3.345165967941284,-8.228917121887207,0.11964113265275955
1770952042859813600,6.071813720703125,3.957728624343872,-9.33440113067627,0.4713860750198364
1770952042878784800,6.09078466796875,4.118047714233398,-10.566704750061035,0.2225325107574463
1770952042897756200,6.109756103515625,3.8524444103240967,-9.640682220458984,0.2225325107574463
1770952042916727600,6.1287275390625,3.6370904445648193,-8.135597229003906,0.15553347766399384
1770952042935699000,6.147698974609375,4.029513359069824,-9.44447135925293,0.0933200865983963
1770952042954670000,6.166670166015625,4.156332969665527,-9.774680137634277,0.1698904037475586
1770952042973641500,6.185641357421875,4.113262176513672,-9.032905578613281,-0.25363919138908386
1770952042992612900,6.20461279296875,3.383451223373413,-8.23130989074707,1.0815558433532715
1770952043011584300,6.223584228515625,3.5748770236968994,-8.3629150390625,-0.035892341285943985
1770952043030555400,6.242555419921875,3.1728827953338623,-9.822537422180176,-0.48813581466674805
1770952043049526800,6.26152685546875,4.00319242477417,-9.65503978729248,0.48574298620224
1770952043068498200,6.280498291015625,3.8883368968963623,-8.872586250305176,0.32303106784820557
1770952043087469600,6.299469482421875,3.2231321334838867,-10.1216402053833,0.24406790733337402
1770952043106440700,6.318440673828125,3.6777684688568115,-10.061819076538086,0.41874396800994873
1770952043125412000,6.337412109375,3.7663028240203857,-8.61894702911377,-0.3517449200153351
1770952043144383500,6.356383544921875,3.208775281906128,-7.714460372924805,0.6460621356964111
1770952043163355000,6.37535498046875,3.3403804302215576,-8.429914474487305,0.031106693670153618
1770952043182326300,6.394326171875,2.8522446155548096,-9.875179290771484,-0.31106695532798767
1770952043201297700,6.413297607421875,3.1680972576141357,-9.061619758605957,0.24885354936122894
1770952043220269000,6.43226904296875,3.5198421478271484,-7.9585280418396,0.17706887423992157
1770952043239240200,6.451240234375,3.036491870880127,-8.695517539978027,0.09810572862625122
1770952043258211600,6.470211669921875,3.3308091163635254,-9.087940216064453,-0.2584248483181
1770952043277183000,6.489182861328125,3.0005996227264404,-9.073583602905273,-0.2632105052471161
1770952043296154400,6.508154296875,3.091526746749878,-8.669196128845215,0.2512463629245758
1770952043315125500,6.52712548828125,3.9074792861938477,-9.432506561279297,-0.1746760457754135
1770952043334097000,6.546096923828125,3.7902309894561768,-8.925228118896484,-0.07896314561367035
1770952043353068300,6.565068359375,2.9694929122924805,-9.492327690124512,0.02871387079358101
1770952043372039700,6.584039794921875,3.5581271648406982,-8.415556907653809,0.15074782073497772
1770952043391011000,6.603010986328125,4.235296249389648,-9.047262191772461,0.37806597352027893
1770952043409982500,6.621982421875,3.5509488582611084,-9.602396965026855,0.16749759018421173
1770952043428953900,6.640953857421875,3.4169507026672363,-9.169296264648438,0.22013968229293823
1770952043447925000,6.659925048828125,3.9840497970581055,-9.001798629760742,-0.41874396800994873
1770952043466896400,6.678896484375,3.428914785385132,-8.910871505737305,-0.009571290574967861
1770952043485867800,6.69786767578125,4.4961137771606445,-9.044869422912598,-0.2632105052471161
1770952043504839200,6.716839111328125,3.7950167655944824,-9.066405296325684,0.2847459018230438
1770952043523810600,6.735810546875,2.754138946533203,-9.281759262084961,-0.29431718587875366
1770952043542782000,6.754781982421875,2.895315408706665,-9.4061861038208,0.09092725813388824
1770952043561753300,6.77375341796875,4.027120590209961,-9.53061294555664,-1.1150553226470947
1770952043580724500,6.792724365234375,3.081955671310425,-10.722238540649414,-0.9020941257476807
1770952043599696100,6.811696044921875,3.94815731048584,-9.714859962463379,0.09810572862625122
1770952043618667300,6.830667236328125,3.3882367610931396,-9.509077072143555,-0.11724831163883209
1770952043637638700,6.849638671875,3.8979079723358154,-9.760323524475098,-0.6269195079803467
1770952043656610000,6.868610107421875,3.3714871406555176,-9.772287368774414,-0.48813581466674805
1770952043675581400,6.88758154296875,3.3236305713653564,-9.994820594787598,-0.07178468257188797
1770952043694552800,6.906552734375,3.239881753921509,-8.719446182250977,-0.3038884699344635
1770952043713524200,6.925524169921875,3.5150563716888428,-9.504291534423828,-0.5359922647476196
1770952043732495600,6.94449560546875,4.130012035369873,-9.803394317626953,-0.6939185857772827
1770952043751466800,6.963466796875,4.048655986785889,-9.399007797241211,-0.09092725813388824
1770952043770438400,6.9824384765625,3.25663161277771,-9.253045082092285,0.01196411345154047
1770952043789409800,7.001409912109375,3.8835511207580566,-9.731609344482422,-0.7322037220001221
1770952043808381000,7.020380859375,4.347758769989014,-9.980463027954102,-0.44745782017707825
1770952043827352300,7.039352294921875,2.5076780319213867,-7.613961696624756,-1.0145567655563354
1770952043846323700,7.05832373046875,3.115455150604248,-8.673981666564941,-0.32542386651039124
1770952043865295000,7.077295166015625,4.108476638793945,-8.111668586730957,-0.10049854964017868
1770952043884266500,7.0962666015625,3.397808074951172,-8.48734188079834,-0.8398807644844055
1770952043903238000,7.11523779296875,2.785245656967163,-8.477770805358887,0.4737788736820221
1770952043922209300,7.134209228515625,3.871587038040161,-8.032705307006836,-0.3326023519039154
1770952043941180700,7.1531806640625,3.366701364517212,-9.339186668395996,-0.6604190468788147
1770952043960152000,7.172152099609375,2.3258235454559326,-10.74855899810791,-0.7202396392822266
1770952043979123500,7.19112353515625,3.4815568923950195,-9.56889820098877,-0.519242525100708
1770952043998094800,7.2100947265625,3.5198421478271484,-8.951549530029297,-0.37806597352027893
1770952044017066200,7.229066162109375,2.967100143432617,-9.286544799804688,0.02153540402650833
1770952044036037600,7.24803759765625,3.266202926635742,-8.645268440246582,-0.34217363595962524
1770952044055009000,7.267009033203125,3.404986619949341,-8.437092781066895,-0.41156548261642456
1770952044073980400,7.28598046875,3.4552359580993652,-9.174081802368164,-0.6436693072319031
1770952044092951800,7.304951904296875,3.809373617172241,-9.226723670959473,-0.38285163044929504
1770952044111923200,7.323923095703125,3.689732551574707,-9.226723670959473,-0.641276478767395
1770952044130894600,7.34289453125,3.5820555686950684,-8.657232284545898,-1.0360921621322632
1770952044149866000,7.361865966796875,3.1800613403320312,-8.812766075134277,-0.5527420043945312
1770952044168837000,7.380837158203125,3.043670415878296,-8.549555778503418,-0.5790630578994751
1770952044187808500,7.39980859375,3.3068809509277344,-9.384650230407715,-1.3304094076156616
1770952044206780200,7.4187802734375,3.924229145050049,-9.487542152404785,-0.19381862878799438
1770952044225751600,7.43775146484375,3.7160534858703613,-7.987242221832275,-0.5096712112426758
1770952044244722700,7.45672265625,3.108276605606079,-9.750752449035645,-1.2969099283218384
1770952044263694300,7.4756943359375,4.211368083953857,-9.686145782470703,-0.4953143000602722
1770952044282665700,7.494665771484375,4.4721856117248535,-8.951549530029297,-1.5864413976669312
1770952044301636900,7.513636962890625,3.242274761199951,-9.518648147583008,-1.2801600694656372
1770952044320608500,7.5326083984375,3.682554006576538,-9.329615592956543,-0.7034898400306702
1770952044339580000,7.551579833984375,4.1419758796691895,-8.511270523071289,-0.8638089895248413
1770952044358551300,7.57055126953125,3.4648072719573975,-8.650053977966309,-0.8590233325958252
1770952044377522700,7.589522705078125,2.723032236099243,-9.638289451599121,-0.6580262184143066
1770952044396493800,7.608493896484375,3.452843189239502,-9.521040916442871,-1.2083754539489746
1770952044415465500,7.627465576171875,3.9912281036376953,-9.729216575622559,-0.7585247755050659
1770952044434436900,7.646436767578125,3.5676984786987305,-10.112068176269531,-1.3806586265563965
1770952044453408300,7.665408203125,4.366901397705078,-9.712467193603516,-1.1820544004440308
1770952044472379600,7.684379638671875,3.2614171504974365,-8.73619556427002,-0.6005984544754028
1770952044491351000,7.70335107421875,3.680161237716675,-9.272188186645508,-1.4428720474243164
1770952044510322400,7.722322509765625,3.517449378967285,-9.454042434692383,-0.4307080805301666
1770952044529293800,7.7412939453125,3.538984775543213,-9.33440113067627,-0.5575276613235474
1770952044548265200,7.76026513671875,3.342773199081421,-9.755537986755371,-1.0504491329193115
1770952044567236600,7.779236572265625,3.862015724182129,-9.748359680175781,-1.038485050201416
1770952044586208000,7.7982080078125,3.9194436073303223,-9.774680137634277,-1.306481122970581
1770952044605179400,7.817179443359375,4.096512317657471,-9.059226989746094,-0.698704183101654
1770952044624150800,7.83615087890625,2.895315408706665,-9.279366493225098,-0.605384111404419
1770952044643122200,7.8551220703125,3.988835334777832,-9.037691116333008,-1.153340458869934
1770952044662093600,7.874093505859375,3.649054527282715,-9.128618240356445,-0.851844847202301
1770952044681065000,7.89306494140625,3.146561861038208,-9.906285285949707,-1.3232308626174927
1770952044700036400,7.912036376953125,4.070191383361816,-8.592626571655273,-0.6580262184143066
1770952044719007700,7.9310078125,4.886143684387207,-8.817551612854004,-0.9427721500396729
1770952044737979100,7.949979248046875,3.7734813690185547,-9.332008361816406,-0.9092726111412048
1770952044756950500,7.968950439453125,4.201796531677246,-8.702695846557617,-0.5527420043945312
1770952044775922000,7.987921875,3.462414264678955,-8.906085968017578,-0.8015955686569214
1770952044794893300,8.006893310546875,2.8283164501190186,-8.94676399230957,-0.3900300860404968
1770952044813865000,8.025864990234375,4.359723091125488,-9.133403778076172,-1.1820544004440308
1770952044832836000,8.044836181640624,3.1202406883239746,-9.305686950683594,-0.794417142868042
1770952044851807500,8.063807373046876,3.8811583518981934,-9.533005714416504,-1.2681959867477417
1770952044870779100,8.082779052734375,4.323830604553223,-9.65503978729248,-0.763310432434082
1770952044889750500,8.10175048828125,3.4959139823913574,-9.279366493225098,-0.8614161610603333
1770952044908722000,8.120721923828125,3.675375461578369,-8.863015174865723,-1.0432707071304321
1770952044927693300,8.139693359375,4.505684852600098,-9.135796546936035,-1.2993026971817017
1770952044946664700,8.158664794921876,3.493520975112915,-9.394221305847168,-0.9379864931106567
1770952044965636000,8.177635986328125,4.563112735748291,-8.367700576782227,-0.7393822073936462
1770952044984607500,8.196607421875,4.438685894012451,-8.848658561706543,-0.6221339106559753
1770952045003579000,8.215578857421875,4.225724697113037,-9.028120040893555,-1.1389836072921753
1770952045022550300,8.23455029296875,4.012763500213623,-9.41336441040039,-1.3304094076156616
1770952045041521700,8.253521728515626,4.565505504608154,-9.401400566101074,-1.1437692642211914
1770952045060493000,8.2724931640625,4.208974838256836,-8.599804878234863,-0.7154539823532104
1770952045079464400,8.29146435546875,3.7495529651641846,-7.781459331512451,-1.184447169303894
1770952045098435800,8.310435791015625,3.8668015003204346,-8.599804878234863,-0.8566305041313171
1770952045117407500,8.329407470703124,3.5509488582611084,-8.219346046447754,-0.9978070259094238
1770952045136378600,8.348378662109376,3.5222349166870117,-8.71226692199707,-0.9308080077171326
1770952045155350300,8.367350341796875,3.9074792861938477,-8.506484031677246,-0.8159525394439697
1770952045174321700,8.38632177734375,3.964907169342041,-8.898907661437988,-1.0719845294952393
1770952045193293000,8.40529296875,3.562912940979004,-8.970691680908203,-1.2203395366668701
1770952045212264400,8.424264404296874,4.398007869720459,-9.42772102355957,-1.4739787578582764
1770952045231235800,8.44323583984375,4.481756687164307,-9.142974853515625,-1.0815558433532715
1770952045250207200,8.462207275390625,4.180261135101318,-9.422935485839844,-1.2418749332427979
1770952045269178600,8.4811787109375,4.417150497436523,-9.698110580444336,-1.2059825658798218
1770952045288150000,8.50014990234375,4.517649173736572,-8.647661209106445,-1.0432707071304321
1770952045307121400,8.519121337890626,4.675575256347656,-8.422736167907715,-1.557727575302124
1770952045326092800,8.5380927734375,4.204189300537109,-9.449256896972656,-0.6675975322723389
1770952045345064200,8.557064208984375,4.977071285247803,-8.874979019165039,-0.9260223507881165
1770952045364035600,8.57603564453125,4.73300313949585,-9.181260108947754,-1.2849457263946533
1770952045383007000,8.595007080078124,4.53200626373291,-9.432506561279297,-1.3519448041915894
1770952045401978400,8.613978271484376,4.551148891448975,-9.030512809753418,-1.4141582250595093
1770952045420949800,8.63294970703125,4.709074974060059,-8.405985832214355,-1.1198409795761108
1770952045439921200,8.651921142578125,4.398007869720459,-8.63330364227295,-1.0959128141403198
1770952045458892800,8.670892822265625,4.682754039764404,-8.733802795410156,-1.4452649354934692
1770952045477864000,8.689864013671874,4.642076015472412,-9.040083885192871,-1.5481562614440918
1770952045496835600,8.708835693359376,4.479363918304443,-8.664410591125488,-1.4979069232940674
1770952045515807000,8.727806884765625,4.632504463195801,-8.81515884399414,-0.9020941257476807
1770952045534778400,8.7467783203125,4.3070807456970215,-8.260024070739746,-0.9619147181510925
1770952045553749800,8.765749755859375,4.268795490264893,-8.38684368133545,-1.3663017749786377
1770952045572721200,8.78472119140625,4.335794448852539,-8.499305725097656,-1.1102696657180786
1770952045591692500,8.803692626953126,4.077369689941406,-8.640482902526855,-1.3543375730514526
1770952045610664000,8.822663818359375,3.469592809677124,-9.06401252746582,-1.332802176475525
1770952045629635300,8.84163525390625,5.826523303985596,-8.810373306274414,-1.466800332069397
1770952045648606700,8.860606689453125,5.00578498840332,-8.980263710021973,-0.9858429431915283
1770952045667578000,8.879578125,4.450650215148926,-8.70508861541748,-0.8422735929489136
1770952045686549500,8.898549560546876,5.422136306762695,-8.11406135559082,-1.246660590171814
1770952045705521000,8.91752099609375,4.792823791503906,-8.918049812316895,-1.466800332069397
1770952045724492300,8.9364921875,4.235296249389648,-8.93958568572998,-1.454836130142212
1770952045743463700,8.955463623046874,5.398207664489746,-9.226723670959473,-1.2658032178878784
1770952045762435000,8.97443505859375,4.941178798675537,-8.879764556884766,-1.129412293434143
1770952045781406500,8.993406494140626,4.622933387756348,-8.714659690856934,-1.1724830865859985
1770952045800377900,9.0123779296875,4.7473602294921875,-8.374878883361816,-1.124626636505127
1770952045819349200,9.031349365234375,4.675575256347656,-8.312665939331055,-1.3256237506866455
1770952045838320600,9.050320556640624,4.692325115203857,-8.96112060546875,-1.495514154434204
1770952045857292300,9.069292236328126,5.01296329498291,-8.61176872253418,-1.1030912399291992
1770952045876263400,9.088263427734375,5.615954875946045,-8.551948547363281,-1.5649060010910034
1770952045895234800,9.10723486328125,5.166104316711426,-8.563912391662598,-1.332802176475525
1770952045914206500,9.12620654296875,4.934000492095947,-7.901100158691406,-0.9595218896865845
1770952045933177600,9.145177490234374,4.735395908355713,-7.8556365966796875,-1.6821542978286743
1770952045952149200,9.164149169921876,4.400400638580322,-8.415556907653809,-0.9044869542121887
1770952045971120600,9.18312060546875,4.922036170959473,-8.329415321350098,-1.2179467678070068
1770952045990091800,9.202091796875,5.441278457641602,-8.609375953674316,-1.6151553392410278
1770952046009063400,9.2210634765625,4.503292083740234,-8.578269004821777,-1.0049854516983032
1770952046028034600,9.24003466796875,4.481756687164307,-8.81515884399414,-1.397408366203308
1770952046047006200,9.259006103515626,5.388636589050293,-9.059226989746094,-1.404586911201477
1770952046065977600,9.2779775390625,5.340780258178711,-9.037691116333008,-0.9906286001205444
1770952046084948700,9.29694873046875,5.395814895629883,-8.726624488830566,-1.306481122970581
1770952046103920400,9.31592041015625,4.8191447257995605,-9.049654960632324,-1.5912270545959473
1770952046122891800,9.334891845703124,5.568098068237305,-9.633503913879395,-1.074377417564392
1770952046141863000,9.35386279296875,5.525027275085449,-9.042476654052734,-1.153340458869934
1770952046160834600,9.37283447265625,5.26181697845459,-8.647661209106445,-1.0169496536254883
1770952046179805700,9.3918056640625,5.5345988273620605,-8.69791030883789,-0.8015955686569214
1770952046198777000,9.410777099609374,5.704489231109619,-8.762516975402832,-0.9810572862625122
1770952046217748700,9.429748779296874,4.783252239227295,-8.63330364227295,-1.0839486122131348
1770952046236719900,9.448719970703126,5.065605640411377,-9.083154678344727,-1.1629117727279663
1770952046255691300,9.467691162109375,5.575276851654053,-8.446663856506348,-0.8111668825149536
1770952046274663000,9.486662841796875,5.79780912399292,-7.941778182983398,-0.5144568681716919
1770952046293634000,9.505634033203124,5.158925533294678,-8.061419486999512,-0.5168496966362
1770952046312605400,9.52460546875,5.000999450683594,-8.549555778503418,-0.7992027401924133
1770952046331576800,9.543576904296875,5.601597785949707,-8.492127418518066,-0.20817556977272034
1770952046350548200,9.56254833984375,5.371886730194092,-7.82692289352417,0.031106693670153618
1770952046369519600,9.58151953125,5.185246467590332,-7.9728851318359375,-0.21774685382843018
1770952046388491000,9.600490966796874,4.780859470367432,-8.71226692199707,-0.2273181527853012
1770952046407462400,9.61946240234375,5.151747226715088,-8.664410591125488,-0.47617170214653015
1770952046426433800,9.638433837890625,5.800201892852783,-8.523234367370605,-0.3278166949748993
1770952046445405200,9.6574052734375,5.158925533294678,-8.037490844726562,0.2225325107574463
1770952046464376600,9.67637646484375,4.5200419425964355,-8.291130065917969,-0.04785645380616188
1770952046483348000,9.695347900390624,5.498706340789795,-8.317451477050781,-0.5312066078186035
1770952046502319400,9.7143193359375,5.6446685791015625,-8.157132148742676,-0.05742774158716202
1770952046521290800,9.733290771484375,5.084748268127441,-8.226524353027344,-0.11246266216039658
1770952046540262100,9.75226220703125,5.431707382202148,-7.915457248687744,-0.13878370821475983
1770952046559233500,9.771233642578125,6.125626087188721,-8.109275817871094,-0.38285163044929504
1770952046578204700,9.79020458984375,6.228517532348633,-8.209774017333984,-0.5072783827781677
1770952046597176000,9.809176025390625,4.840680122375488,-8.891729354858398,-0.1698904037475586
1770952046616147700,9.828147705078125,6.206982135772705,-8.3629150390625,-0.27756741642951965
1770952046635118800,9.847118896484375,7.10429048538208,-8.559126853942871,-0.6005984544754028
1770952046654090200,9.86609033203125,6.56829833984375,-8.666803359985352,-0.3852444589138031
1770952046673061600,9.8850615234375,6.269195556640625,-8.767302513122559,-0.4163511395454407
1770952046692033000,9.904032958984375,7.3986077308654785,-8.9850492477417,-0.8039883971214294
1770952046711004400,9.92300439453125,7.350750923156738,-9.154939651489258,-0.7202396392822266
1770952046729975800,9.941975830078125,6.482156753540039,-8.870193481445312,-0.4043870270252228
1770952046748947200,9.960947265625,6.532405853271484,-8.595019340515137,-0.851844847202301
1770952046767918300,9.97991845703125,6.726224422454834,-8.817551612854004,-0.9619147181510925
1770952046786889700,9.9988896484375,6.5874409675598145,-8.748159408569336,-0.5048855543136597
1770952046805861000,10.017861083984375,5.67338228225708,-8.738588333129883,-0.363709032535553
1770952046824832500,10.03683251953125,5.553741455078125,-8.343772888183594,-0.24646073579788208
1770952046843804000,10.055803955078124,4.902893543243408,-8.391629219055176,-0.6604190468788147
1770952046862775300,10.074775390625,5.221138954162598,-8.714659690856934,-0.09092725813388824
1770952046881746400,10.093746337890625,5.089533805847168,-8.274380683898926,-0.16510476171970367
1770952046900717800,10.1127177734375,5.182853698730469,-8.647661209106445,-0.6867401003837585
1770952046919689200,10.131689208984374,4.914857864379883,-8.539983749389648,-0.23688943684101105
1770952046938660600,10.15066064453125,5.362315654754639,-8.372486114501953,-0.4570291340351105
1770952046957632000,10.169632080078125,6.39601469039917,-8.135597229003906,-0.42831525206565857
1770952046976603400,10.188603271484375,6.314659118652344,-7.970492362976074,0.24406790733337402
1770952046995574800,10.20757470703125,5.434100151062012,-7.814958572387695,-0.2799602448940277
1770952047024031700,10.23603173828125,6.032305717468262,-7.642675399780273,-0.12442677468061447
1770952047043003100,10.255003173828126,5.831308841705322,-7.89631462097168,-0.49292147159576416
1770952047061974300,10.273974365234375,6.087340831756592,-7.8077802658081055,-0.349352091550827
1770952047080945700,10.292945556640625,5.881557941436768,-7.846065521240234,0.007178467698395252
1770952047099917000,10.3119169921875,6.527620315551758,-8.049455642700195,-0.04785645380616188
1770952047118888400,10.330888427734376,6.295516490936279,-7.905886173248291,-0.5072783827781677
1770952047137859600,10.349859619140625,6.080162525177002,-8.901300430297852,-0.5623133182525635
1770952047156831000,10.3688310546875,6.702296257019043,-8.554341316223145,-0.08135596662759781
1770952047175802400,10.38780224609375,7.659425258636475,-9.016156196594238,-0.3158525824546814
1770952047194773800,10.406773681640624,6.932007312774658,-8.898907661437988,-0.5048855543136597
1770952047213745000,10.425744873046876,6.31944465637207,-8.50169849395752,-0.3086741268634796
1770952047232716300,10.44471630859375,7.089933395385742,-8.48734188079834,-0.11485548317432404
1770952047251687700,10.463687744140625,7.657032489776611,-8.528019905090332,-0.4905286431312561
1770952047270659000,10.4826591796875,6.214160442352295,-8.671588897705078,-0.8590233325958252
1770952047289630200,10.501630126953126,6.640082836151123,-8.812766075134277,-0.4737788736820221
1770952047308601600,10.5206015625,7.070790767669678,-8.13081169128418,-0.7202396392822266
1770952047327573000,10.539572998046875,6.896114826202393,-8.322237014770508,-0.380458801984787
1770952047346544400,10.55854443359375,6.106483459472656,-8.286344528198242,-0.16031911969184875
1770952047365515500,10.577515625,5.592026710510254,-9.052047729492188,-0.5479564070701599
1770952047384487000,10.59648681640625,5.72841739654541,-8.851051330566406,-0.24406790733337402
1770952047403458300,10.615458251953125,5.972485542297363,-8.590232849121094,0.13878370821475983
1770952047422429700,10.6344296875,5.32403039932251,-8.647661209106445,0.062213387340307236
1770952047441400800,10.65340087890625,5.400600910186768,-8.575876235961914,-0.22971096634864807
1770952047460372200,10.672372314453124,5.190032482147217,-8.678768157958984,-0.2512463629245758
1770952047479343400,10.69134326171875,4.886143684387207,-8.659625053405762,0.16271193325519562
1770952047498314800,10.710314697265625,5.103890895843506,-8.173882484436035,0.28953152894973755
1770952047517286100,10.7292861328125,5.6925249099731445,-8.193024635314941,0.10767702013254166
1770952047536257300,10.74825732421875,5.166104316711426,-8.609375953674316,-0.05742774158716202
1770952047555228700,10.767228759765626,5.166104316711426,-8.252845764160156,0.11006984114646912
1770952047574200000,10.786199951171875,5.395814895629883,-8.142775535583496,0.08853443711996078
1770952047593171200,10.805171142578125,5.544169902801514,-8.24566650390625,0.19142581522464752
1770952047612142600,10.824142578125,5.529813289642334,-7.788637638092041,0.4307080805301666
1770952047631113700,10.84311376953125,5.79780912399292,-7.810173034667969,0.04546362906694412
1770952047650085000,10.862085205078126,5.60399055480957,-8.415556907653809,-0.05503492057323456
1770952047669056500,10.881056396484375,5.584847927093506,-8.343772888183594,0.03349951654672623
1770952047688027600,10.900027587890625,6.474977970123291,-8.307880401611328,0.22492532432079315
1770952047706999000,10.9189990234375,6.187839508056641,-8.628518104553223,0.20817556977272034
1770952047725970200,10.93797021484375,6.245266914367676,-8.317451477050781,-0.12442677468061447
1770952047744941600,10.956941650390625,6.616154670715332,-8.200202941894531,-0.1052841991186142
1770952047763912700,10.97591259765625,6.305087566375732,-7.779066562652588,0.1698904037475586
1770952047782884000,10.994884033203125,6.5252275466918945,-7.893921852111816,0.349352091550827
1770952047801855500,11.01385546875,6.922435760498047,-7.590033531188965,-0.13878370821475983
1770952047820826600,11.03282666015625,5.577669620513916,-8.197810173034668,0.0933200865983963
1770952047839798000,11.051798095703125,6.230910301208496,-8.212167739868164,-0.07417750358581543
1770952047858769200,11.07076904296875,6.6113691329956055,-8.169096946716309,0.09571290761232376
1770952047877740500,11.089740478515624,5.7858452796936035,-8.403593063354492,0.07657032459974289
1770952047896711700,11.108711669921876,6.350551128387451,-8.288737297058105,0.11485548317432404
1770952047925168600,11.137168701171875,6.4510498046875,-8.12123966217041,0.007178467698395252
1770952047944139800,11.156139892578125,5.807380676269531,-8.583054542541504,-0.11485548317432404
1770952047963111200,11.175111083984374,5.635097503662109,-8.288737297058105,-0.10289137065410614
1770952047982082300,11.194082275390626,6.058627128601074,-8.135597229003906,0.1052841991186142
1770952048001053700,11.2130537109375,5.7164530754089355,-8.068597793579102,0.09092725813388824
1770952048020024800,11.23202490234375,4.814359188079834,-8.530412673950195,0.17946170270442963
1770952048038996200,11.250996337890625,6.034698486328125,-8.195417404174805,0.12921242415905
1770952048057967400,11.26996728515625,5.314459323883057,-8.760123252868652,0.009571290574967861
1770952048076938800,11.288938720703126,5.101497650146484,-8.752944946289062,0.16031911969184875
1770952048095910000,11.307909912109375,5.9916276931762695,-8.547162055969238,0.24885354936122894
1770952048114881000,11.326881103515625,5.5968122482299805,-8.00638484954834,0.016749758273363113
1770952048133852400,11.345852294921874,6.003592014312744,-8.461020469665527,0.08135596662759781
1770952048152823600,11.364823486328126,6.092126369476318,-8.554341316223145,-0.16271193325519562
1770952048171795000,11.383794921875,6.075376510620117,-8.549555778503418,0
1770952048190766000,11.40276611328125,5.639883041381836,-8.358129501342773,0.4713860750198364
1770952048209737500,11.421737548828125,5.505885124206543,-8.437092781066895,-0.1339980661869049
1770952048228708600,11.44070849609375,6.192625045776367,-8.918049812316895,-0.04546362906694412
1770952048247679700,11.4596796875,5.826523303985596,-8.571090698242188,-0.1986042857170105
1770952048266651100,11.478651123046875,5.85284423828125,-8.695517539978027,0.3158525824546814
1770952048285622300,11.497622314453125,6.058627128601074,-8.042277336120605,0.3158525824546814
1770952048304593400,11.516593505859374,5.44845724105835,-8.413164138793945,-0.2584248483181
1770952048323564800,11.535564697265626,6.120840549468994,-8.34855842590332,-0.17706887423992157
1770952048342536000,11.554535888671875,6.376872539520264,-8.298309326171875,-0.275174617767334
1770952048361507000,11.573507080078125,6.247660160064697,-8.334200859069824,0.12921242415905
1770952048380478500,11.592478515625,6.716653347015381,-7.738388538360596,-0.016749758273363113
1770952048399449600,11.61144970703125,6.367300987243652,-7.743174076080322,-0.33499518036842346
1770952048418420700,11.630420654296875,5.795416355133057,-8.571090698242188,-0.40677985548973083
1770952048437392100,11.64939208984375,6.489335060119629,-8.12123966217041,-0.23210379481315613
1770952048456363300,11.66836328125,6.355337142944336,-7.82692289352417,-0.3086741268634796
1770952048475334400,11.68733447265625,6.295516490936279,-8.178668022155762,-0.10289137065410614
1770952048494305500,11.706305419921875,6.922435760498047,-8.236095428466797,-0.4019941985607147
1770952048513277000,11.72527685546875,6.175875186920166,-8.382058143615723,-0.37806597352027893
1770952048532248000,11.744248046875,6.391229152679443,-8.389236450195312,-0.380458801984787
1770952048551219200,11.76321923828125,6.776473522186279,-8.133204460144043,-0.7322037220001221
1770952048570190300,11.7821904296875,6.142375946044922,-8.042277336120605,-0.4713860750198364
1770952048589161700,11.80116162109375,6.597012042999268,-7.89631462097168,-0.4259224236011505
1770952048608132900,11.8201328125,6.403193473815918,-8.207381248474121,-0.9403793215751648
1770952048627104000,11.83910400390625,6.161518096923828,-8.401200294494629,-0.48095735907554626
1770952048646075100,11.8580751953125,5.771488189697266,-7.795815944671631,-0.08374879509210587
1770952048665046300,11.87704638671875,5.615954875946045,-7.427321434020996,-0.44027936458587646
1770952048684017700,11.896017578125,5.4556355476379395,-7.850851058959961,-0.3038884699344635
1770952048702988800,11.91498876953125,6.0370917320251465,-8.061419486999512,-0.5958128571510315
1770952048721960000,11.9339599609375,6.190232276916504,-8.264809608459473,-0.4139583110809326
1770952048740931000,11.95293115234375,5.898307800292969,-7.917850017547607,-0.17706887423992157
1770952048759902200,11.971902099609375,5.5345988273620605,-7.692924976348877,-0.4546363055706024
1770952048778873300,11.990873291015625,6.350551128387451,-7.625925540924072,-0.5383850932121277
1770952048797844700,12.0098447265625,6.027520179748535,-7.920242786407471,-0.4666004180908203
1770952048816815900,12.02881591796875,5.7858452796936035,-8.327022552490234,-0.22492532432079315
1770952048835787000,12.047787109375,6.831508636474609,-8.169096946716309,-0.12921242415905
1770952048854758100,12.066758056640625,6.474977970123291,-8.01356315612793,-0.5264210104942322
1770952048873729300,12.085729248046874,6.269195556640625,-7.76470947265625,-0.9044869542121887
1770952048892700400,12.104700439453126,6.544369697570801,-7.953742504119873,-0.7034898400306702
1770952048911671600,12.123671630859375,6.446264266967773,-8.128418922424316,-0.4043870270252228
1770952048930642700,12.142642578125,6.527620315551758,-8.015955924987793,-0.8877372145652771
1770952048949613800,12.16161376953125,7.551748275756836,-7.836493968963623,-0.5479564070701599
1770952048968585200,12.180585205078126,6.427121639251709,-7.733603000640869,-0.7704889178276062
1770952048987556400,12.199556396484375,6.977470874786377,-7.913064479827881,-0.8757730722427368
1770952049006527500,12.218527587890625,7.994420528411865,-8.02074146270752,-0.8303094506263733
1770952049025498600,12.23749853515625,7.025327205657959,-8.126026153564453,-0.638883650302887
1770952049044469800,12.2564697265625,7.04207706451416,-7.893921852111816,-0.9236295223236084
1770952049063441000,12.27544091796875,6.831508636474609,-8.3629150390625,-0.9667003750801086
1770952049082412000,12.294412109375,7.343572616577148,-8.02791976928711,-1.4333007335662842
1770952049101383200,12.313383056640625,6.379265308380127,-8.135597229003906,-1.1102696657180786
1770952049120354300,12.332354248046874,5.697310924530029,-7.905886173248291,-0.8566305041313171
1770952049139325400,12.351325439453126,7.223931789398193,-7.960920810699463,-0.7848458290100098
1770952049158296600,12.370296630859375,6.850651264190674,-7.960920810699463,-0.5312066078186035
1770952049177267700,12.389267822265625,5.570491313934326,-7.623532772064209,-0.7657032608985901
1770952049196238800,12.40823876953125,5.9509501457214355,-7.788637638092041,-0.6604190468788147
1770952049215210000,12.4272099609375,6.130411624908447,-8.15234661102295,-0.8231309652328491
1770952049234181000,12.44618115234375,6.814758777618408,-8.221738815307617,-0.638883650302887
1770952049253152300,12.46515234375,5.565705299377441,-8.250452041625977,-0.397208571434021
1770952049272123400,12.484123291015624,6.876972198486328,-8.274380683898926,-0.8925228714942932
1770952049310065400,12.5220654296875,5.522634506225586,-8.38684368133545,-0.5120640397071838
1770952049329036500,12.54103662109375,6.058627128601074,-7.814958572387695,-0.8135597109794617
1770952049348007700,12.560007568359374,6.618547439575195,-8.164310455322266,-0.5934200286865234
1770952049366978800,12.578978759765626,6.099305152893066,-8.271987915039062,-0.8685946464538574
1770952049385950000,12.597949951171875,6.137589931488037,-7.802994728088379,-0.6819544434547424
1770952049404921000,12.616921142578125,6.017949104309082,-7.539783954620361,-0.605384111404419
1770952049423892200,12.635892333984375,5.938985824584961,-8.080561637878418,-0.47617170214653015
1770952049442863400,12.65486328125,6.977470874786377,-8.044670104980469,-1.124626636505127
1770952049461834200,12.673834228515625,6.3529438972473145,-8.140382766723633,-0.363709032535553
1770952049480805600,12.6928056640625,6.31944465637207,-7.83410120010376,-0.39481574296951294
1770952049499776800,12.71177685546875,6.884150981903076,-7.913064479827881,-0.7704889178276062
1770952049518747600,12.73074755859375,7.013363361358643,-7.982456207275391,-0.8159525394439697
1770952049537718800,12.74971875,6.941578388214111,-7.513463020324707,-0.6029912829399109
1770952049556690000,12.76868994140625,6.422336101531982,-8.13798999786377,-0.6125625967979431
1770952049575661000,12.7876611328125,6.692724704742432,-8.590232849121094,-0.9954141974449158
1770952049594632200,12.806632080078124,6.613761901855469,-8.181060791015625,-0.729810893535614
1770952049613603300,12.825603271484376,7.027719974517822,-8.209774017333984,-0.9690931439399719
1770952049632574200,12.84457421875,7.0301127433776855,-8.26241683959961,-0.9379864931106567
1770952049651545300,12.86354541015625,6.711867332458496,-8.24566650390625,-0.6245267391204834
1770952049670516500,12.8825166015625,6.989434719085693,-8.080561637878418,-0.9092726111412048
1770952049689487600,12.901487548828126,6.898507595062256,-7.671389579772949,-0.5288137793540955
1770952049708458800,12.920458740234375,6.786045074462891,-7.77188777923584,-0.6221339106559753
1770952049727429600,12.9394296875,5.857629776000977,-7.817351341247559,-0.45224347710609436
1770952049746400800,12.95840087890625,6.173482418060303,-7.369893550872803,-0.6340979933738708
1770952049765371600,12.97737158203125,5.733202934265137,-7.927421569824219,-0.7010970115661621
1770952049784342800,12.9963427734375,5.924628734588623,-8.37727165222168,-0.2871387302875519
1770952049803314000,13.01531396484375,5.443671703338623,-8.444271087646484,-0.363709032535553
1770952049822285000,13.03428515625,5.903093338012695,-8.21695327758789,-0.4785645306110382
1770952049841256200,13.053256103515626,5.764309883117676,-8.13798999786377,-0.7178468108177185
1770952049860227000,13.07222705078125,5.9437713623046875,-8.260024070739746,-0.20338992774486542
1770952049879198200,13.0911982421875,5.960521221160889,-8.248059272766113,-0.17946170270442963
1770952049898169300,13.11016943359375,6.254838466644287,-8.197810173034668,-0.1866401731967926
1770952049917140200,13.12914013671875,6.386443614959717,-8.173882484436035,-0.349352091550827
1770952049936111400,13.148111328125,5.903093338012695,-8.312665939331055,-0.27756741642951965
1770952049955082500,13.16708251953125,6.192625045776367,-8.484949111938477,-0.4450650215148926
1770952049974053600,13.1860537109375,6.1710896492004395,-8.726624488830566,-0.39481574296951294
1770952049993024500,13.2050244140625,6.661618232727051,-8.827122688293457,-0.5958128571510315
1770952050030966800,13.242966796875,5.864808082580566,-8.329415321350098,-0.16749759018421173
1770952050049937700,13.261937744140624,6.463014125823975,-8.451449394226074,-0.576670229434967
1770952050068908800,13.28090869140625,6.405586242675781,-8.523234367370605,-0.2153540402650833
1770952050087879700,13.299879638671875,6.671189308166504,-8.57348346710205,-0.5790630578994751
1770952050106850800,13.318850830078125,7.001399040222168,-8.149953842163086,-0.10049854964017868
1770952050125822000,13.337822021484374,6.063412666320801,-7.3914289474487305,-0.24646073579788208
1770952050144792800,13.356792724609376,6.551548480987549,-7.530212879180908,0.03349951654672623
1770952050163764000,13.375763916015625,6.812366008758545,-7.676175117492676,-0.1698904037475586
1770952050182735000,13.394735107421875,6.211767673492432,-8.13081169128418,-0.363709032535553
1770952050201706000,13.4137060546875,6.331408500671387,-7.932207107543945,0
1770952050220677000,13.432677001953126,7.441678524017334,-8.300702095031738,-0.14835500717163086
1770952050239648000,13.45164794921875,6.838686943054199,-7.992027759552002,-0.3278166949748993
1770952050258619100,13.470619140625,7.003791809082031,-8.169096946716309,-0.25363919138908386
1770952050277590000,13.489590087890624,7.135396957397461,-7.625925540924072,-0.4498506486415863
1770952050296561200,13.50856103515625,6.5252275466918945,-7.724031448364258,-0.20578274130821228
1770952050315532300,13.5275322265625,6.532405853271484,-8.02791976928711,-0.04785645380616188
1770952050334503200,13.546503173828125,6.656832695007324,-7.795815944671631,0.08853443711996078
1770952050353474300,13.565474365234374,6.240481376647949,-8.047062873840332,0.04546362906694412
1770952050372445200,13.584445068359376,6.151947021484375,-7.822137355804443,0.24167509377002716
1770952050391416300,13.603416259765625,5.9198431968688965,-7.848458290100098,0.2392822653055191
1770952050410387200,13.62238720703125,6.273981094360352,-8.109275817871094,0.2273181527853012
1770952050429358300,13.6413583984375,6.757331371307373,-8.073383331298828,0.13878370821475983
1770952050448329200,13.6603291015625,6.362515449523926,-8.135597229003906,0.672383189201355
1770952050467300400,13.67930029296875,6.058627128601074,-7.963313579559326,0.27038896083831787
1770952050486271200,13.698271240234375,6.434299945831299,-7.977670669555664,0.2919243574142456
1770952050505242400,13.717242431640624,6.082555294036865,-7.987242221832275,0.5670989751815796
1770952050524213200,13.736213134765626,6.3122663497924805,-8.250452041625977,0.5312066078186035
1770952050543184400,13.755184326171875,6.192625045776367,-8.26241683959961,0.43549370765686035
1770952050562155300,13.7741552734375,7.0923261642456055,-8.250452041625977,0.16749759018421173
1770952050581126400,13.79312646484375,6.041877269744873,-8.389236450195312,0.6029912829399109
1770952050600097300,13.81209716796875,6.183053493499756,-8.149953842163086,0.4211367964744568
1770952050619068400,13.831068359375,6.726224422454834,-8.197810173034668,0.5862415432929993
1770952050638039300,13.850039306640625,6.618547439575195,-8.188239097595215,0.7322037220001221
1770952050657010200,13.86901025390625,5.924628734588623,-8.178668022155762,0.5072783827781677
1770952050675981300,13.887981201171876,6.221338748931885,-7.95134973526001,0.6149554252624512
1770952050694952200,13.9069521484375,6.515655994415283,-7.836493968963623,0.8135597109794617
1770952050713923300,13.92592333984375,6.293123722076416,-8.248059272766113,0.5599204897880554
1770952050732894200,13.944894287109374,6.159125328063965,-8.484949111938477,0.27756741642951965
1770952050751865000,13.963864990234375,6.668796539306641,-7.929814338684082,0.9116654396057129
1770952050770836200,13.982836181640625,6.3529438972473145,-7.590033531188965,0.8327022790908813
1770952050789807000,14.00180712890625,6.515655994415283,-8.451449394226074,0.7920243144035339
1770952050808778200,14.0207783203125,6.38883638381958,-8.650053977966309,0.4570291340351105
1770952050827749000,14.0397490234375,6.491727828979492,-8.317451477050781,0.8709874153137207
1770952050846720000,14.058719970703125,6.104090690612793,-7.781459331512451,1.0791629552841187
1770952050865691100,14.077691162109375,6.38883638381958,-7.927421569824219,0.8877372145652771
1770952050884662000,14.096662109375,6.427121639251709,-7.6043901443481445,0.8374879360198975
1770952050903633000,14.1156328125,6.364908218383789,-8.015955924987793,1.0001999139785767
1770952050922604000,14.13460400390625,6.343372821807861,-8.116454124450684,1.155733346939087
1770952050941575000,14.153574951171874,6.410371780395508,-7.6498541831970215,1.1653046607971191
1770952050960546000,14.172546142578126,6.130411624908447,-7.69531774520874,0.9930213689804077
1770952050979517000,14.191516845703125,6.26440954208374,-8.078168869018555,0.8279166221618652
1770952050998487800,14.21048779296875,5.836094379425049,-8.023134231567383,1.2083754539489746
1770952051017458700,14.229458740234374,6.625725746154785,-7.460821151733398,1.3639088869094849
1770952051036429600,14.2484296875,5.326423168182373,-7.860422611236572,1.2035897970199585
1770952051055400700,14.267400634765625,4.845465660095215,-7.984848976135254,1.4093725681304932
1770952051074371600,14.28637158203125,5.970092296600342,-7.7216386795043945,1.129412293434143
1770952051093342700,14.3053427734375,4.984249591827393,-8.221738815307617,1.3112667798995972
1770952051112313600,14.324313720703126,5.525027275085449,-8.389236450195312,1.1413763761520386
1770952051131284500,14.343284423828125,5.7547383308410645,-8.477770805358887,1.2897313833236694
1770952051150255400,14.36225537109375,5.424529075622559,-8.513663291931152,1.6534404754638672
1770952051169226200,14.381226318359374,5.733202934265137,-8.872586250305176,1.3112667798995972
1770952051188197400,14.400197265625,5.2354960441589355,-9.291330337524414,0.916451096534729
1770952051207168300,14.419168212890625,4.6995038986206055,-9.10229778289795,1.5792629718780518
1770952051226139100,14.43813916015625,6.0610198974609375,-8.367700576782227,1.2634103298187256
1770952051245110000,14.457110107421874,5.733202934265137,-8.3629150390625,1.856830358505249
1770952051264081200,14.4760810546875,5.082355499267578,-7.506284713745117,2.2947168350219727
1770952051283052000,14.495052001953125,5.039284706115723,-7.848458290100098,1.672582983970642
1770952051302023000,14.51402294921875,5.146961688995361,-8.583054542541504,1.0863415002822876
1770952051320993800,14.532993896484374,5.197210788726807,-9.023334503173828,1.2203395366668701
1770952051339964700,14.551964599609375,5.816951751708984,-8.776873588562012,1.454836130142212
1770952051358935600,14.570935546875,5.402993679046631,-8.597412109375,1.2921242713928223
1770952051387392000,14.59939208984375,4.9986066818237305,-8.298309326171875,1.459621787071228
1770952051406363100,14.618363037109376,4.843072891235352,-8.279166221618652,1.2801600694656372
1770952051425333800,14.637333740234375,4.9435715675354,-7.877171993255615,1.5672988891601562
1770952051453790200,14.665790283203124,4.874179840087891,-8.09252643585205,1.4883357286453247
1770952051472761000,14.684760986328126,4.223331928253174,-8.188239097595215,1.5337992906570435
1770952051491732000,14.70373193359375,4.821537494659424,-8.063812255859375,1.6175481081008911
1770952051510703000,14.722703125,4.4961137771606445,-8.068597793579102,1.5744773149490356
1770952051529673700,14.741673828125,4.027120590209961,-7.910671710968018,1.5314065217971802
1770952051548644900,14.760644775390626,3.407379388809204,-8.023134231567383,1.667797327041626
1770952051567615700,14.77961572265625,4.146761417388916,-7.9728851318359375,1.7802600860595703
1770952051586586600,14.798586669921875,3.6849467754364014,-8.149953842163086,1.7419748306274414
1770952051605557500,14.8175576171875,4.302295207977295,-8.350951194763184,1.9310078620910645
1770952051624528400,14.8365283203125,4.575077056884766,-8.291130065917969,1.832902193069458
1770952051643499300,14.855499267578125,5.1182475090026855,-8.709874153137207,1.495514154434204
1770952051662470100,14.87447021484375,4.599005222320557,-9.41336441040039,1.6558332443237305
1770952051681441000,14.89344091796875,4.761716842651367,-9.399007797241211,1.057627558708191
1770952051700412000,14.912411865234375,4.749752998352051,-9.396614074707031,1.25144624710083
1770952051719382800,14.9313828125,4.299902439117432,-7.953742504119873,1.6319050788879395
1770952051738353700,14.950353759765624,4.022335052490234,-7.858029365539551,1.4883357286453247
1770952051757324800,14.96932470703125,4.0319061279296875,-8.283951759338379,1.7874385118484497
1770952051776295400,14.98829541015625,3.91705060005188,-8.142775535583496,1.9357935190200806
1770952051795266600,15.0072666015625,4.5200419425964355,-8.195417404174805,1.794616937637329
1770952051814237200,15.0262373046875,4.682754039764404,-9.470791816711426,1.2658032178878784
1770952051833208000,15.0452080078125,4.579862594604492,-9.559326171875,1.0504491329193115
1770952051852179000,15.064178955078125,5.838487148284912,-8.346165657043457,1.5290136337280273
1770952051871149800,15.08314990234375,3.538984775543213,-7.654639720916748,1.8735800981521606
1770952051890120700,15.10212060546875,3.81655216217041,-8.635697364807129,1.8472590446472168
1770952051909091600,15.121091552734375,3.452843189239502,-9.006584167480469,1.4165509939193726
1770952051928062500,15.1400625,2.746960401535034,-8.796015739440918,1.490728497505188
1770952051947033300,15.159033447265625,3.2374889850616455,-8.901300430297852,1.4859428405761719
1770952051966004200,15.178004150390626,3.7902309894561768,-8.980263710021973,1.4620146751403809
1770952051984975000,15.19697509765625,5.402993679046631,-8.96829891204834,1.196411371231079
1770952052003946000,15.215946044921875,3.366701364517212,-9.600004196166992,1.4380863904953003
1770952052022916900,15.234916748046874,3.7328033447265625,-9.734002113342285,1.1724830865859985
1770952052041887700,15.2538876953125,4.785645484924316,-9.650253295898438,1.3471591472625732
1770952052070344000,15.282343994140625,4.278367042541504,-9.343972206115723,1.3854442834854126
1770952052089314800,15.301314697265624,3.78544545173645,-9.597611427307129,1.797009825706482
1770952052108285700,15.32028564453125,4.316651821136475,-9.255437850952148,1.698904037475586
1770952052127256600,15.339256591796875,3.8428730964660645,-9.468399047851562,1.5744773149490356
1770952052146227500,15.3582275390625,3.5365917682647705,-9.652647018432617,1.2945170402526855
1770952052165198300,15.3771982421875,3.7782669067382812,-10.179067611694336,0.5934200286865234
1770952052184169000,15.3961689453125,4.182653903961182,-9.592825889587402,1.2299108505249023
1770952052203139800,15.415139892578125,3.9984066486358643,-9.396614074707031,1.8544375896453857
1770952052222110700,15.43411083984375,2.8666014671325684,-8.805587768554688,1.1820544004440308
1770952052241081600,15.45308154296875,4.063013076782227,-9.05444049835205,1.404586911201477
1770952052260052500,15.472052490234375,3.9768712520599365,-8.810373306274414,2.280359983444214
1770952052279023000,15.491023193359375,3.1250264644622803,-9.145368576049805,1.4117653369903564
1770952052297994000,15.509993896484374,4.244867324829102,-10.231709480285645,1.074377417564392
1770952052316964900,15.52896484375,4.493721008300781,-9.523433685302734,0.9882357716560364
1770952052335935700,15.547935791015625,4.1730828285217285,-9.233902931213379,1.6534404754638672
1770952052354906600,15.56690673828125,4.163511276245117,-8.358129501342773,1.8185452222824097
1770952052383362800,15.59536279296875,4.706682205200195,-9.066405296325684,1.6079767942428589
1770952052402333700,15.614333740234375,4.754538536071777,-8.925228118896484,1.667797327041626
1770952052421304600,15.6333046875,4.120440483093262,-9.891928672790527,1.4141582250595093
1770952052440275200,15.652275146484374,2.981456995010376,-9.332008361816406,1.4835500717163086
1770952052459246000,15.67124609375,3.1489546298980713,-8.707481384277344,1.7204394340515137
1770952052478217000,15.690217041015625,3.1824541091918945,-8.681160926818848,1.423729419708252
1770952052497187600,15.7091875,2.445464849472046,-8.50169849395752,1.3495519161224365
1770952052516158500,15.728158447265624,3.208775281906128,-8.140382766723633,1.7491533756256104
1770952052535129300,15.74712939453125,3.208775281906128,-8.044670104980469,1.7395820617675781
1770952052554100000,15.766099853515625,3.3619158267974854,-8.056633949279785,1.428515076637268
1770952052573070800,15.78507080078125,3.5748770236968994,-8.336593627929688,1.7276179790496826
1770952052592041700,15.804041748046876,3.1585259437561035,-8.58784008026123,1.4883357286453247
1770952052611012600,15.8230126953125,2.816352367401123,-8.461020469665527,1.5385849475860596
1770952052629983200,15.841983154296875,4.321437835693359,-9.422935485839844,1.1126625537872314
1770952052648954000,15.8609541015625,3.814159393310547,-9.30329418182373,1.5385849475860596
1770952052667925000,15.879925048828126,2.4670002460479736,-8.616554260253906,1.1988041400909424
1770952052686895600,15.8988955078125,3.3858439922332764,-8.910871505737305,0.9475577473640442
1770952052705866500,15.917866455078125,3.7734813690185547,-9.174081802368164,1.25144624710083
1770952052724837400,15.93683740234375,3.570091485977173,-8.599804878234863,1.3830515146255493
1770952052743808000,15.95580810546875,3.2542388439178467,-8.602197647094727,1.7371892929077148
1770952052762779000,15.97477880859375,3.5581271648406982,-8.353343963623047,1.0887342691421509
1770952052781749800,15.993749755859374,3.046063184738159,-8.874979019165039,1.2729816436767578
1770952052800720400,16.012720458984376,3.6681971549987793,-9.162117958068848,1.4380863904953003
1770952052819691300,16.031691162109375,4.6301116943359375,-9.391828536987305,0.9978070259094238
1770952052838662000,16.050661865234375,4.230510234832764,-9.45882797241211,1.3232308626174927
1770952052857632800,16.0696328125,3.136990547180176,-9.353543281555176,0.9882357716560364
1770952052876603600,16.088603759765626,3.8117663860321045,-8.659625053405762,1.1150553226470947
1770952052905059800,16.117059814453125,3.1250264644622803,-8.719446182250977,1.0408778190612793
1770952052924030500,16.136030517578124,3.0891339778900146,-8.427521705627441,0.9978070259094238
1770952052943001300,16.15500146484375,3.2303106784820557,-9.21715259552002,1.222732424736023
1770952052961972000,16.173971923828127,3.7639100551605225,-9.140582084655762,1.2945170402526855
1770952052980942800,16.19294287109375,3.6442689895629883,-9.087940216064453,1.3040883541107178
1770952052999913700,16.211913818359374,2.9862427711486816,-8.927620887756348,1.1270195245742798
1770952053018884400,16.23088427734375,4.242474555969238,-9.564111709594727,1.1485549211502075
1770952053037855000,16.24985498046875,3.531806230545044,-8.72901725769043,1.3304094076156616
1770952053056825900,16.268825927734376,2.794816732406616,-9.489934921264648,1.1078768968582153
1770952053075796700,16.287796630859376,3.8763725757598877,-9.174081802368164,1.4620146751403809
1770952053104253000,16.3162529296875,3.8285162448883057,-8.913264274597168,1.0097711086273193
1770952053123223600,16.3352236328125,3.1513473987579346,-9.001798629760742,1.4931213855743408
1770952053142194200,16.354194091796874,3.326023578643799,-9.001798629760742,1.246660590171814
1770952053161165000,16.3731650390625,3.7328033447265625,-10.255638122558594,0.9355936646461487
1770952053180136000,16.392135986328125,3.735196113586426,-9.681360244750977,1.184447169303894
1770952053199106600,16.4111064453125,3.3786656856536865,-9.073583602905273,0.8662018179893494
1770952053218077200,16.4300771484375,3.108276605606079,-8.82233715057373,1.3423734903335571
1770952053237048000,16.449048095703127,3.359523057937622,-9.207581520080566,1.1629117727279663
1770952053256019000,16.46801904296875,3.0628130435943604,-9.166903495788574,1.2610175609588623
1770952053274989600,16.486989501953126,3.373879909515381,-9.07119083404541,1.196411371231079
1770952053293960200,16.505960205078125,3.22552490234375,-8.709874153137207,0.8111668825149536
1770952053312931000,16.52493115234375,3.0029923915863037,-9.097511291503906,0.8757730722427368
1770952053331901700,16.543901611328124,2.8594231605529785,-8.819944381713867,0.794417142868042
1770952053350872600,16.56287255859375,3.3954153060913086,-8.539983749389648,0.8398807644844055
1770952053369843200,16.58184326171875,2.964707374572754,-8.252845764160156,1.332802176475525
1770952053388813800,16.600813720703126,2.7397818565368652,-9.056833267211914,0.973878800868988
1770952053407784700,16.61978466796875,3.8883368968963623,-8.264809608459473,0.9475577473640442
1770952053426755300,16.63875537109375,3.562912940979004,-8.37009334564209,1.2346965074539185
1770952053455211500,16.66721142578125,3.548556089401245,-8.709874153137207,1.1653046607971191
1770952053474182400,16.686182373046876,2.4837498664855957,-9.470791816711426,0.8350951075553894
1770952053493153000,16.705153076171875,3.4576287269592285,-9.121439933776855,1.2729816436767578
1770952053512123600,16.72412353515625,3.964907169342041,-8.264809608459473,0.5144568681716919
1770952053531094500,16.743094482421874,3.0029923915863037,-8.542376518249512,1.2179467678070068
1770952053550065200,16.762065185546874,2.6488547325134277,-8.10688304901123,0.9116654396057129
1770952053569035800,16.781035888671877,2.5196423530578613,-8.62612533569336,1.1126625537872314
1770952053588006700,16.800006591796876,3.115455150604248,-9.023334503173828,1.179661512374878
1770952053606977300,16.818977294921876,3.3475589752197266,-9.22433090209961,0.45942193269729614
1770952053625948000,16.837947998046875,3.9984066486358643,-10.040284156799316,0.4977070987224579
1770952053644918800,16.856918701171875,4.012763500213623,-9.738788604736328,0.9188438653945923
1770952053663889400,16.875889404296874,2.9766714572906494,-9.329615592956543,0.8805587291717529
1770952053682860300,16.8948603515625,3.326023578643799,-9.820143699645996,1.222732424736023
1770952053701831000,16.913830810546877,3.3690943717956543,-10.569097518920898,0.3517449200153351
1770952053720801500,16.932801513671876,3.845266103744507,-10.628918647766113,-0.06699903309345245
1770952053739772200,16.951772216796876,3.2446675300598145,-10.25324535369873,0.5718846321105957
1770952053758743000,16.970742919921875,3.098705291748047,-9.796216011047363,0.851844847202301
1770952053777713700,16.989713623046875,3.862015724182129,-9.858428955078125,0.5431707501411438
1770952053796684300,17.008684326171874,3.869194269180298,-10.152746200561523,0.08614161610603333
1770952053815655200,17.0276552734375,2.8833513259887695,-10.071390151977539,0.2919243574142456
1770952053844111000,17.056111083984376,3.19441819190979,-9.492327690124512,0.5120640397071838
1770952053863082000,17.07508203125,2.7828526496887207,-9.439684867858887,0.605384111404419
1770952053882052600,17.094052490234375,3.218346357345581,-9.4660062789917,0.4785645306110382
1770952053901023200,17.113023193359375,3.7471601963043213,-8.937192916870117,0.33738797903060913
1770952053919993900,17.131993896484374,3.1800613403320312,-8.654839515686035,1.069591760635376
1770952053938964700,17.15096484375,2.9359934329986572,-8.73619556427002,1.4021940231323242
1770952053957935400,17.169935302734373,3.129812002182007,-9.346364974975586,1.184447169303894
1770952053976906000,17.188906005859376,3.0101709365844727,-10.26042366027832,0.19621145725250244
1770952053995876600,17.207876708984376,3.4959139823913574,-10.439885139465332,0.25363919138908386
1770952054014847500,17.226847412109375,2.9766714572906494,-9.729216575622559,0.519242525100708
1770952054033818000,17.245818115234375,2.991028308868408,-9.329615592956543,1.0169496536254883
1770952054052788700,17.264788818359374,2.8426733016967773,-9.494720458984375,0.7657032608985901
1770952054071759400,17.28375927734375,3.8285162448883057,-9.90149974822998,-0.038285162299871445
1770952054090730000,17.30272998046875,2.3880369663238525,-9.93260669708252,0.9954141974449158
1770952054109700900,17.321700927734376,3.321237802505493,-9.533005714416504,0.3445664644241333
1770952054128671500,17.34067138671875,3.105883836746216,-9.142974853515625,0.6843472719192505
1770952054147642000,17.35964208984375,2.950350284576416,-9.667003631591797,0.3684946894645691
1770952054166612700,17.37861279296875,3.129812002182007,-8.973084449768066,-0.11006984114646912
1770952054185583600,17.39758349609375,3.1417760848999023,-8.980263710021973,0.31106695532798767
1770952054204554200,17.41655419921875,2.7397818565368652,-8.645268440246582,0.27038896083831787
1770952054223524900,17.43552490234375,2.478964328765869,-8.149953842163086,0.6005984544754028
1770952054242495500,17.45449560546875,2.7110681533813477,-7.781459331512451,1.423729419708252
1770952054261466400,17.47346630859375,2.486142635345459,-9.056833267211914,0.4426721930503845
1770952054280437000,17.49243701171875,3.675375461578369,-10.250852584838867,-0.5383850932121277
1770952054299407600,17.51140771484375,3.500699520111084,-10.102497100830078,-0.3732803463935852
1770952054318378200,17.530378173828126,3.2063822746276855,-9.590433120727539,0.12681959569454193
1770952054337348900,17.549348876953125,4.06540584564209,-8.683553695678711,0.02153540402650833
1770952054356319500,17.568319580078125,3.895515203475952,-9.611968994140625,-0.059820566326379776
1770952054375290000,17.5872900390625,2.8666014671325684,-9.743574142456055,0.5623133182525635
1770952054394261000,17.606260986328124,3.94097900390625,-9.109476089477539,0.5575276613235474
1770952054413231600,17.625231689453123,3.022135019302368,-9.475577354431152,0.27038896083831787
1770952054432202200,17.6442021484375,3.469592809677124,-10.542776107788086,-0.12921242415905
1770952054451172900,17.6631728515625,4.742574691772461,-9.736394882202148,0.3158525824546814
1770952054470143500,17.6821435546875,3.1728827953338623,-10.210174560546875,0.6317051649093628
1770952054489114000,17.701114013671877,3.1130621433258057,-10.116853713989258,-0.11724831163883209
1770952054508085000,17.7200849609375,3.91705060005188,-10.313065528869629,-0.3684946894645691
1770952054527055600,17.7390556640625,3.6777684688568115,-9.42772102355957,0.11964113265275955
1770952054546026200,17.758026123046875,2.8283164501190186,-9.214759826660156,-0.02632104977965355
1770952054564996900,17.776996826171874,3.146561861038208,-10.06421184539795,0.3517449200153351
1770952054583967500,17.795967529296874,3.603590965270996,-9.604789733886719,0.914058268070221
1770952054602938000,17.814938232421873,3.050848960876465,-9.317651748657227,0.040677983313798904
1770952054621908700,17.83390869140625,2.3736801147460938,-10.348958015441895,-0.26560330390930176
1770952054640879400,17.85287939453125,3.8596229553222656,-9.748359680175781,0.31106695532798767
1770952054659850000,17.87185009765625,3.460021495819092,-9.379864692687988,0.4378865361213684
1770952054678820600,17.890820556640627,3.1513473987579346,-8.276773452758789,0.42831525206565857
1770952054697791200,17.909791259765626,3.4121651649475098,-9.087940216064453,0.6173482537269592
1770952054716761900,17.928761962890626,3.376272678375244,-9.588040351867676,0.04546362906694412
1770952054735732700,17.947732666015625,3.0867412090301514,-9.832108497619629,-0.16031911969184875
1770952054754703400,17.966703369140625,2.675175666809082,-8.602197647094727,0.17706887423992157
1770952054773674000,17.985674072265624,3.7184464931488037,-8.937192916870117,-0.2632105052471161
1770952054792644600,18.00464453125,3.1728827953338623,-10.224531173706055,-0.5264210104942322
1770952054811615200,18.023615234375,2.8929226398468018,-9.205188751220703,-0.47617170214653015
1770952054830585900,18.0425859375,2.4023938179016113,-8.164310455322266,0.33020952343940735
1770952054849556500,18.061556396484374,2.258824586868286,-7.88913631439209,0.32542386651039124
1770952054868527000,18.080527099609377,3.4743785858154297,-8.673981666564941,0.397208571434021
1770952054887497700,18.099497802734376,2.792423963546753,-8.638090133666992,0.20578274130821228
1770952054906468400,18.11846826171875,2.572284460067749,-8.544769287109375,0.014356935396790504
1770952054925439000,18.13743896484375,3.0317063331604004,-8.760123252868652,0.27756741642951965
1770952054944409600,18.15640966796875,4.06540584564209,-8.343772888183594,-0.014356935396790504
1770952054963380200,18.175380126953126,3.046063184738159,-8.489734649658203,0.30149564146995544
1770952054982350800,18.194350830078125,3.3068809509277344,-8.549555778503418,0.5910272002220154
1770952055001321500,18.213321533203125,3.4337005615234375,-8.956335067749023,0.4546363055706024
1770952055020292000,18.2322919921875,3.290131092071533,-9.255437850952148,0.2967100143432617
1770952055039262700,18.2512626953125,2.9312076568603516,-9.609575271606445,-0.4833501875400543
1770952055058233300,18.2702333984375,2.210968017578125,-9.300901412963867,-0.275174617767334
1770952055077204000,18.289203857421874,2.7110681533813477,-9.114261627197266,-0.2392822653055191
1770952055096174600,18.308174560546874,3.5126636028289795,-9.159725189208984,-0.02392822690308094
1770952055115145200,18.327145263671873,3.541377544403076,-9.410971641540527,0.040677983313798904
1770952055134115800,18.34611572265625,3.4648072719573975,-9.262616157531738,0.9355936646461487
1770952055153086500,18.36508642578125,3.9457645416259766,-9.858428955078125,-0.03349951654672623
1770952055172057000,18.38405712890625,4.0079779624938965,-10.322636604309082,-0.20338992774486542
1770952055191027700,18.40302783203125,3.050848960876465,-9.681360244750977,0.11724831163883209
1770952055209998300,18.421998291015626,3.538984775543213,-9.604789733886719,0.17228323221206665
1770952055228969000,18.440968994140626,3.397808074951172,-9.731609344482422,0.17228323221206665
1770952055247939600,18.459939697265625,3.4743785858154297,-9.882357597351074,-0.009571290574967861
1770952055266910200,18.47891015625,2.8115665912628174,-8.812766075134277,0.06939185410737991
1770952055285880800,18.497880859375,2.4670002460479736,-9.353543281555176,0.01196411345154047
1770952055304851500,18.5168515625,3.187239646911621,-9.66939640045166,0.12203395366668701
1770952055323822000,18.535822021484375,3.1585259437561035,-9.487542152404785,0.1459621787071228
1770952055342792700,18.554792724609374,3.4169507026672363,-8.987442016601562,-0.380458801984787
1770952055361763300,18.573763427734374,2.9862427711486816,-9.449256896972656,0.5335994362831116
1770952055380734000,18.59273388671875,4.572684288024902,-10.219745635986328,0.5144568681716919
1770952055399704600,18.61170458984375,3.7663028240203857,-10.37767219543457,0.8231309652328491
1770952055418675200,18.63067529296875,3.6634113788604736,-9.724431037902832,-0.062213387340307236
1770952055437645800,18.649645751953123,3.759124279022217,-9.523433685302734,0.23688943684101105
1770952055456616400,18.668616455078126,3.081955671310425,-9.772287368774414,0.14117653667926788
1770952055475587000,18.687587158203126,3.4552359580993652,-9.91825008392334,-0.6915257573127747
1770952055494557700,18.7065576171875,2.210968017578125,-9.107083320617676,0.33499518036842346
1770952055513528300,18.7255283203125,2.0650060176849365,-8.439485549926758,-0.04546362906694412
1770952055541984300,18.753984375,2.8450660705566406,-9.131011009216309,-0.038285162299871445
1770952055560955000,18.772954833984375,3.081955671310425,-9.501898765563965,-0.15314064919948578
1770952055579925500,18.791925537109375,3.428914785385132,-9.611968994140625,0.1459621787071228
1770952055598895900,18.810895751953126,2.9455647468566895,-8.74337387084961,0.3158525824546814
1770952055617866500,18.829866455078125,2.864208698272705,-9.052047729492188,0.2632105052471161
1770952055636837000,18.848837158203125,2.8426733016967773,-8.23130989074707,0.019142581149935722
1770952055655807700,18.867807861328124,3.5916268825531006,-8.855836868286133,-0.6364908218383789
1770952055674778400,18.8867783203125,2.840280532836914,-9.920642852783203,0.09571290761232376
1770952055693749000,18.9057490234375,3.893122434616089,-8.920442581176758,0.2512463629245758
1770952055712719600,18.9247197265625,3.242274761199951,-8.561519622802734,-0.02632104977965355
1770952055731690000,18.94368994140625,2.4406790733337402,-9.001798629760742,-0.5359922647476196
1770952055750660600,18.96266064453125,3.067598581314087,-9.145368576049805,-0.17706887423992157
1770952055769631200,18.98163134765625,2.555534601211548,-9.300901412963867,0.3852444589138031
1770952055788601900,19.000601806640624,3.2063822746276855,-9.181260108947754,-0.48574298620224
1770952055807572500,19.019572509765624,3.25663161277771,-9.22433090209961,0.2991028428077698
1770952055826543000,19.038543212890627,3.3547372817993164,-8.324629783630371,0.1579262912273407
1770952055845513700,19.057513671875,3.7710886001586914,-9.604789733886719,-0.363709032535553
1770952055864484400,19.076484375,3.5294134616851807,-9.863214492797852,-0.08853443711996078
1770952055883455000,19.095455078125,4.130012035369873,-9.848857879638672,-0.5718846321105957
1770952055902425300,19.11442529296875,3.414557933807373,-9.525827407836914,-0.16749759018421173
1770952055921396000,19.13339599609375,2.9766714572906494,-8.846264839172363,-0.851844847202301
1770952055940366600,19.15236669921875,2.6608188152313232,-9.226723670959473,-0.9284151792526245
1770952055959337200,19.171337158203126,2.8498518466949463,-8.676374435424805,0.3613162338733673
1770952055978307800,19.190307861328126,2.940778970718384,-9.363115310668945,0.0933200865983963
1770952055997278200,19.2092783203125,3.634697675704956,-9.68375301361084,-0.3732803463935852
1770952056016248800,19.228248779296877,3.421736478805542,-9.332008361816406,-0.0526420995593071
1770952056035219500,19.247219482421876,3.139383316040039,-9.265008926391602,-0.7393822073936462
1770952056054190000,19.266190185546876,3.8021950721740723,-9.578469276428223,-0.7489534616470337
1770952056073160700,19.28516064453125,3.404986619949341,-9.315258979797363,-0.2512463629245758
1770952056092131300,19.30413134765625,2.531606435775757,-9.621540069580078,-1.0456634759902954
1770952056111102000,19.32310205078125,3.0556344985961914,-9.145368576049805,-0.48813581466674805
1770952056130072300,19.342072265625,2.6009981632232666,-8.405985832214355,-0.4426721930503845
1770952056149043000,19.36104296875,2.7421748638153076,-8.908478736877441,-0.6580262184143066
1770952056168013600,19.380013671875,4.517649173736572,-9.93978500366211,-0.1866401731967926
1770952056186984200,19.398984130859375,2.888136863708496,-10.112068176269531,0.09092725813388824
1770952056205954600,19.41795458984375,3.476771354675293,-10.001998901367188,-1.404586911201477
1770952056224925200,19.43692529296875,4.005585193634033,-9.236295700073242,-0.6747759580612183
1770952056253381000,19.465381103515625,3.864408493041992,-8.877371788024902,-1.4500504732131958
1770952056272351700,19.484351806640625,2.9623143672943115,-9.463613510131836,-0.48095735907554626
1770952056291322400,19.503322265625,3.5365917682647705,-8.403593063354492,0.1052841991186142
1770952056310292700,19.522292724609375,3.397808074951172,-8.353343963623047,-0.4139583110809326
1770952056329263400,19.541263427734375,3.656233072280884,-9.214759826660156,-0.8255237936973572
1770952056348234000,19.56023388671875,3.531806230545044,-9.31047248840332,-0.9571290612220764
1770952056367204400,19.579204345703126,3.0077781677246094,-8.762516975402832,-0.8542376756668091
1770952056386175000,19.598175048828125,3.012563705444336,-9.049654960632324,-0.4666004180908203
1770952056405145600,19.6171455078125,3.5461630821228027,-8.908478736877441,-0.9906286001205444
1770952056424116200,19.6361162109375,2.775674343109131,-9.336793899536133,-1.430907964706421
1770952056443086800,19.6550869140625,3.3858439922332764,-8.673981666564941,-0.5862415432929993
1770952056462057200,19.67405712890625,4.0319061279296875,-8.240880966186523,-0.7010970115661621
1770952056481027800,19.69302783203125,3.2685956954956055,-9.363115310668945,-1.0121639966964722
1770952056499998500,19.71199853515625,3.4887354373931885,-9.253045082092285,-0.3684946894645691
1770952056518968800,19.73096875,3.0245277881622314,-8.185846328735352,-0.8781659007072449
1770952056537939500,19.749939453125,3.050848960876465,-9.104690551757812,-0.9260223507881165
1770952056556910000,19.76891015625,4.1659040451049805,-8.997013092041016,-0.9020941257476807
1770952056575880700,19.787880615234375,2.3880369663238525,-10.138389587402344,-1.3471591472625732
1770952056594851000,19.80685107421875,3.469592809677124,-9.7005033493042,-0.9619147181510925
1770952056613821700,19.82582177734375,4.29033088684082,-9.145368576049805,-0.8973084688186646
1770952056632792300,19.844792236328125,3.0652058124542236,-8.874979019165039,-0.9092726111412048
1770952056651762700,19.8637626953125,2.6703901290893555,-8.841479301452637,-1.0719845294952393
1770952056670733300,19.8827333984375,2.9694929122924805,-9.619147300720215,-1.5146567821502686
1770952056689704000,19.901703857421875,3.996013879776001,-9.578469276428223,-1.0408778190612793
1770952056708674600,19.920674560546875,4.273581027984619,-9.324830055236816,-0.849452018737793
1770952056727645000,19.93964501953125,3.1130621433258057,-9.315258979797363,-1.1222338676452637
1770952056746615600,19.958615478515625,3.3786656856536865,-9.049654960632324,-1.215553879737854
1770952056765586200,19.977586181640625,3.845266103744507,-9.066405296325684,-1.124626636505127
1770952056784556500,19.996556640625,3.9696927070617676,-9.635896682739258,-1.25144624710083
1770952056803527200,20.015527099609375,3.3236305713653564,-9.482755661010742,-0.8566305041313171
1770952056822497800,20.034497802734375,3.7782669067382812,-9.456435203552246,-1.1102696657180786
1770952056841468400,20.053468505859374,4.371686935424805,-9.408578872680664,-1.404586911201477
1770952056860438800,20.072438720703126,4.508078098297119,-9.33440113067627,-1.2658032178878784
1770952056879409400,20.091409423828125,4.153940200805664,-8.757730484008789,-0.7465606927871704
1770952056898379800,20.1103798828125,4.022335052490234,-8.980263710021973,-1.0767701864242554
1770952056917350400,20.129350341796876,4.333401679992676,-9.257830619812012,-1.1485549211502075
1770952056936321000,20.148321044921875,4.500899314880371,-8.695517539978027,-0.8662018179893494
1770952056955291600,20.167291748046875,3.486342668533325,-9.078369140625,-0.6508477330207825
1770952056974262000,20.186261962890626,3.957728624343872,-9.186046600341797,-0.9786644577980042
1770952056993232600,20.205232666015625,4.106083869934082,-9.20279598236084,-1.069591760635376
1770952057012203000,20.224203125,4.108476638793945,-9.518648147583008,-1.1389836072921753
1770952057031173600,20.243173583984376,4.0558342933654785,-9.1716890335083,-0.7106683254241943
1770952057050144300,20.262144287109376,3.9361932277679443,-8.82233715057373,-0.8159525394439697
1770952057069115000,20.281114990234375,4.244867324829102,-8.676374435424805,-1.2418749332427979
1770952057088085200,20.300085205078126,4.046263217926025,-8.9850492477417,-0.7537391185760498
1770952057107055900,20.319055908203126,3.838087558746338,-8.803194046020508,-1.184447169303894
1770952057126026200,20.338026123046873,4.2281174659729,-9.214759826660156,-1.100698471069336
1770952057144996900,20.356996826171876,4.661218643188477,-8.93240737915039,-0.7465606927871704
1770952057163967500,20.375967529296876,3.8428730964660645,-8.740981101989746,-1.6247265338897705
1770952057182937900,20.394937744140623,4.132404804229736,-8.898907661437988,-0.9355936646461487
1770952057201908500,20.413908447265626,4.211368083953857,-8.595019340515137,-1.4261223077774048
1770952057220878800,20.43287890625,4.060619831085205,-8.965906143188477,-1.3208380937576294
1770952057239849500,20.451849365234374,4.917250633239746,-8.810373306274414,-0.5407779216766357
1770952057258820000,20.470820068359377,4.553541660308838,-8.133204460144043,-1.1988041400909424
1770952057277790500,20.48979052734375,4.2592244148254395,-8.336593627929688,-1.3040883541107178
1770952057296761000,20.508760986328124,4.390829563140869,-8.906085968017578,-1.0528420209884644
1770952057315731700,20.527731689453127,4.67078971862793,-8.149953842163086,-1.0911271572113037
1770952057344187400,20.5561875,4.240081787109375,-8.563912391662598,-1.2323036193847656
1770952057363158000,20.575157958984374,4.467400074005127,-8.791230201721191,-1.1653046607971191
1770952057382128400,20.59412841796875,5.460421085357666,-8.312665939331055,-1.1389836072921753
1770952057401099000,20.61309912109375,4.744967460632324,-8.48016357421875,-0.9427721500396729
1770952057420069400,20.6320693359375,4.2592244148254395,-9.030512809753418,-0.7896314859390259
1770952057439040000,20.6510400390625,5.582455158233643,-9.044869422912598,-1.2849457263946533
1770952057458010600,20.6700107421875,5.264209747314453,-8.776873588562012,-0.9499505758285522
1770952057476981000,20.68898095703125,4.572684288024902,-8.504091262817383,-1.1270195245742798
1770952057495951600,20.70795166015625,5.120640277862549,-8.949156761169434,-0.9978070259094238
1770952057514922000,20.726921875,5.539384365081787,-8.884550094604492,-0.9978070259094238
1770952057533892600,20.745892578125,4.6061835289001465,-8.94676399230957,-1.0456634759902954
1770952057552863200,20.76486328125,4.9531426429748535,-9.07119083404541,-0.9355936646461487
1770952057571833600,20.78383349609375,5.431707382202148,-8.72901725769043,-1.1270195245742798
1770952057590804200,20.80280419921875,5.0225348472595215,-8.645268440246582,-0.7393822073936462
1770952057609774600,20.821774658203125,5.630311489105225,-8.319844245910645,-0.8590233325958252
1770952057628745200,20.8407451171875,5.170889854431152,-8.413164138793945,-0.6293123364448547
1770952057647715800,20.8597158203125,4.948357105255127,-8.561519622802734,-0.6269195079803467
1770952057666686200,20.878686279296875,5.051248550415039,-8.382058143615723,-0.5264210104942322
1770952057685656800,20.89765673828125,4.859822750091553,-8.157132148742676,-0.550349235534668
1770952057704627200,20.916627197265626,5.661418437957764,-8.427521705627441,-0.5910272002220154
1770952057723597800,20.935597900390626,5.699703693389893,-8.233702659606934,-0.32542386651039124
1770952057742568200,20.954568115234373,4.989035129547119,-8.310273170471191,-0.3565305769443512
1770952057761538800,20.973538818359376,5.6446685791015625,-8.291130065917969,-0.397208571434021
1770952057780509200,20.99250927734375,5.26181697845459,-8.293522834777832,-0.4307080805301666
1770952057799479800,21.011479736328123,5.788238048553467,-8.415556907653809,-0.6029912829399109
1770952057818450200,21.0304501953125,5.498706340789795,-8.805587768554688,-0.4378865361213684
1770952057837420800,21.0494208984375,5.467599868774414,-8.671588897705078,-0.6795616149902344
1770952057856391200,21.06839111328125,6.597012042999268,-8.525627136230469,-0.5240281820297241
1770952057875361800,21.08736181640625,6.142375946044922,-8.001599311828613,-0.2919243574142456
1770952057894332200,21.106332275390624,5.312066078186035,-7.869993686676025,-0.5024927258491516
1770952057913302800,21.125302734375,6.309873104095459,-8.193024635314941,-1.0600204467773438
1770952057932273400,21.1442734375,5.881557941436768,-8.319844245910645,-0.5168496966362
1770952057960729000,21.17272900390625,6.025127410888672,-8.283951759338379,-0.5431707501411438
1770952057979699500,21.191699462890625,5.266602516174316,-8.556734085083008,-0.4953143000602722
1770952057998670000,21.210670166015625,6.240481376647949,-8.104490280151367,-0.4091726839542389
1770952058027125800,21.239125732421876,5.879165172576904,-8.623732566833496,-0.5599204897880554
1770952058046096100,21.25809619140625,5.982056617736816,-8.865407943725586,-0.3086741268634796
1770952058065066800,21.277066650390626,6.300302028656006,-8.35573673248291,-0.4450650215148926
1770952058084037400,21.296037353515626,6.1088762283325195,-8.161917686462402,-0.20578274130821228
1770952058103007700,21.3150078125,5.548955917358398,-7.494320392608643,-0.35413774847984314
1770952058121978000,21.33397802734375,5.84566593170166,-7.714460372924805,-0.04546362906694412
1770952058140948700,21.35294873046875,5.556134223937988,-7.95134973526001,-0.3517449200153351
1770952058159919400,21.37191943359375,6.058627128601074,-8.396414756774902,-0.3397808074951172
1770952058178889700,21.3908896484375,6.39601469039917,-8.757730484008789,-0.4043870270252228
1770952058197860000,21.409860107421874,6.223731517791748,-8.410771369934082,-0.794417142868042
1770952058216830700,21.428830810546874,5.759523868560791,-8.451449394226074,-0.5527420043945312
1770952058235801000,21.447801025390625,6.8004021644592285,-7.668996810913086,-0.3924229145050049
1770952058254771700,21.466771728515624,5.670989513397217,-8.26241683959961,-0.5910272002220154
1770952058273742000,21.4857421875,6.135197162628174,-7.95134973526001,-0.23688943684101105
1770952058292712700,21.504712646484375,6.058627128601074,-8.25523853302002,-0.7058826684951782
1770952058311683000,21.52368310546875,7.137789726257324,-8.090133666992188,-0.5240281820297241
1770952058330653700,21.54265380859375,5.749952793121338,-8.204988479614258,-0.16031911969184875
1770952058349624000,21.5616240234375,6.3601226806640625,-8.614161491394043,-0.7010970115661621
1770952058368594700,21.5805947265625,7.197610378265381,-8.635697364807129,-0.5048855543136597
1770952058397050400,21.60905029296875,6.640082836151123,-8.319844245910645,-0.6819544434547424
1770952058416020700,21.628020751953127,6.647261142730713,-8.420342445373535,-0.6245267391204834
1770952058434991400,21.646991455078126,7.128218650817871,-8.513663291931152,-0.8183453679084778
1770952058453961700,21.665961669921874,6.898507595062256,-8.669196128845215,-0.6269195079803467
1770952058472932000,21.68493212890625,5.900700569152832,-8.405985832214355,-0.2847459018230438
1770952058491902700,21.70390283203125,6.965506553649902,-8.597412109375,-1.3902299404144287
1770952058510873000,21.722873046875,6.429514408111572,-7.927421569824219,-0.9858429431915283
1770952058529843700,21.74184375,6.022734642028809,-8.061419486999512,-0.3445664644241333
1770952058548814000,21.76081396484375,6.331408500671387,-7.858029365539551,-0.7369893789291382
1770952058567784400,21.779784423828126,5.328815937042236,-8.068597793579102,-0.6628118753433228
1770952058586755000,21.798755126953125,6.041877269744873,-7.568498134613037,-0.31824541091918945
1770952058605725400,21.817725341796876,6.329015731811523,-7.192824840545654,-0.8255237936973572
1770952058624695800,21.83669580078125,5.814558982849121,-7.345965385437012,-0.5838487148284912
1770952058643666400,21.85566650390625,6.38165807723999,-7.83410120010376,-0.5096712112426758
1770952058662636800,21.87463671875,6.391229152679443,-7.539783954620361,-0.29431718587875366
1770952058681607200,21.893607177734374,6.283552169799805,-7.7216386795043945,-0.5288137793540955
1770952058700577800,21.912577880859374,6.453442573547363,-8.00638484954834,-0.641276478767395
1770952058719548200,21.931548095703125,6.386443614959717,-7.8628153800964355,-0.5288137793540955
1770952058738518800,21.950518798828124,6.814758777618408,-8.327022552490234,-0.8566305041313171
1770952058757489200,21.9694892578125,7.467999458312988,-8.118846893310547,-0.3158525824546814
1770952058776459800,21.988459716796875,6.814758777618408,-7.9728851318359375,-0.6580262184143066
1770952058795430100,22.00743017578125,6.922435760498047,-8.13798999786377,-0.8231309652328491
1770952058814400500,22.026400390625,7.534998416900635,-8.219346046447754,-0.8327022790908813
1770952058833371100,22.04537109375,6.357729911804199,-7.817351341247559,-0.4211367964744568
1770952058852341500,22.064341552734376,6.508477687835693,-7.893921852111816,-0.7106683254241943
1770952058871312000,22.083311767578124,6.97986364364624,-8.781659126281738,-0.9762716293334961
1770952058890282500,22.102282470703123,6.908079147338867,-8.097311973571777,-0.2560320198535919
1770952058909252900,22.1212529296875,6.178267955780029,-8.482556343078613,-0.7680960893630981
1770952058928223200,22.14022314453125,7.159325122833252,-8.506484031677246,-0.9571290612220764
1770952058947193900,22.15919384765625,7.238288402557373,-7.554141044616699,-0.2871387302875519
1770952058966164200,22.178164306640625,5.515456199645996,-7.779066562652588,-0.37088751792907715
1770952058985134600,22.197134521484376,6.288337707519531,-8.008777618408203,-0.5096712112426758
1770952059004105000,22.21610498046875,7.286144733428955,-7.829315662384033,-0.4139583110809326
1770952059023075600,22.23507568359375,6.321837425231934,-8.142775535583496,-0.4307080805301666
1770952059042046000,22.2540458984375,6.271588325500488,-8.535198211669922,-0.5694918036460876
1770952059061016300,22.273016357421874,6.479763507843018,-8.654839515686035,-0.6604190468788147
1770952059079986700,22.291986572265625,7.051648139953613,-8.391629219055176,-1.0193424224853516
1770952059098957000,22.31095703125,7.2430739402771,-8.7505521774292,-0.763310432434082
1770952059117927700,22.329927734375,6.486942291259766,-8.683553695678711,-0.5934200286865234
1770952059136898000,22.34889794921875,6.111268997192383,-8.738588333129883,-0.17706887423992157
1770952059155868400,22.367868408203126,7.276573657989502,-8.647661209106445,-1.2394821643829346
1770952059174839000,22.386839111328126,6.570691108703613,-8.733802795410156,-0.6125625967979431
1770952059193809400,22.405809326171877,6.3361945152282715,-8.09252643585205,-0.2153540402650833
1770952059212779800,22.42477978515625,6.836294174194336,-8.032705307006836,-0.43549370765686035
1770952059231750400,22.44375048828125,6.51326322555542,-8.01356315612793,-0.3900300860404968
1770952059250720800,22.462720703125,6.716653347015381,-8.09970474243164,-1.0408778190612793
1770952059269691100,22.481691162109374,6.386443614959717,-7.788637638092041,-0.3900300860404968
1770952059288661500,22.50066162109375,6.154339790344238,-7.511070251464844,-0.2799602448940277
1770952059307631900,22.5196318359375,6.374479293823242,-8.047062873840332,-0.8470591902732849
1770952059326602500,22.5386025390625,6.9344000816345215,-8.126026153564453,-0.5288137793540955
1770952059345572900,22.55757275390625,6.56829833984375,-7.76470947265625,-0.4713860750198364
1770952059364543200,22.576543212890623,6.932007312774658,-7.429714202880859,-0.3900300860404968
1770952059392999000,22.6049990234375,6.867401123046875,-7.661818027496338,-0.7058826684951782
1770952059411969300,22.62396923828125,7.302894592285156,-7.36032247543335,-0.48813581466674805
1770952059430939600,22.642939697265625,6.156732559204102,-7.795815944671631,-0.3565305769443512
1770952059449910000,22.661909912109376,6.276373863220215,-7.843672752380371,-0.33738797903060913
1770952059468880400,22.68088037109375,7.195217609405518,-7.886743545532227,-0.44745782017707825
1770952059487851000,22.69985107421875,6.965506553649902,-7.869993686676025,-0.5120640397071838
1770952059506821400,22.7188212890625,6.321837425231934,-7.975277900695801,0.13639089465141296
1770952059525791700,22.737791748046874,6.798008918762207,-7.654639720916748,-0.07417750358581543
1770952059544762000,22.75676220703125,6.309873104095459,-7.987242221832275,-0.6604190468788147
1770952059563732500,22.775732421875,7.211967468261719,-8.240880966186523,-0.32303106784820557
1770952059582703000,22.794703125,6.616154670715332,-8.291130065917969,-0.397208571434021
1770952059601673500,22.813673583984375,6.482156753540039,-7.676175117492676,-0.2153540402650833
1770952059620643800,22.832643798828126,6.896114826202393,-7.432106971740723,0.24885354936122894
1770952059639614200,22.8516142578125,6.149554252624512,-8.044670104980469,-0.26560330390930176
1770952059658584600,22.87058447265625,6.20219612121582,-8.319844245910645,-0.33738797903060913
1770952059677555200,22.88955517578125,7.118647575378418,-7.975277900695801,-0.22492532432079315
1770952059696525600,22.908525634765624,6.283552169799805,-7.83410120010376,-0.3613162338733673
1770952059715496000,22.927495849609375,6.680760860443115,-7.6737823486328125,-0.17228323221206665
1770952059734466300,22.94646630859375,7.3746795654296875,-7.850851058959961,-0.35892340540885925
1770952059753436700,22.965436767578126,6.9822564125061035,-8.346165657043457,-0.2991028428077698
1770952059781892400,22.993892333984373,6.175875186920166,-7.427321434020996,-0.1818545162677765
1770952059800862700,23.01286279296875,6.680760860443115,-8.008777618408203,-0.9068797826766968
1770952059819833000,23.0318330078125,7.451249599456787,-8.001599311828613,-0.6101697683334351
1770952059838803500,23.050803466796875,6.317051887512207,-7.75753116607666,-0.275174617767334
1770952059857773800,23.06977392578125,6.434299945831299,-7.396214962005615,-0.2273181527853012
1770952059876744400,23.088744384765626,6.915257453918457,-7.917850017547607,-0.4259224236011505
1770952059895714800,23.10771484375,6.348158359527588,-8.047062873840332,-0.7250252366065979
1770952059914685200,23.126685302734376,7.027719974517822,-8.181060791015625,-0.45942193269729614
1770952059933655600,23.145655517578124,6.735795974731445,-7.968099594116211,-0.6029912829399109
1770952059952626000,23.1646259765625,6.652047157287598,-7.913064479827881,-0.7872386574745178
1770952059971596300,23.18359619140625,7.424928665161133,-7.908278942108154,-0.41874396800994873
1770952059990566700,23.202566650390626,6.8004021644592285,-8.420342445373535,-1.0719845294952393
1770952060019022300,23.231022216796877,6.343372821807861,-8.133204460144043,-0.22971096634864807
1770952060037992700,23.24999267578125,7.2813591957092285,-7.781459331512451,-0.6317051649093628
1770952060056963000,23.268963134765624,7.322037220001221,-8.178668022155762,-0.849452018737793
1770952060075933400,23.287933349609375,6.223731517791748,-8.171489715576172,-0.6436693072319031
1770952060094903800,23.30690380859375,7.278966426849365,-7.8317084312438965,-0.45224347710609436
1770952060113874200,23.325874267578126,6.448657035827637,-8.169096946716309,-0.5958128571510315
1770952060132844800,23.3448447265625,7.027719974517822,-8.01356315612793,-0.6005984544754028
1770952060151815000,23.36381494140625,7.149754047393799,-8.109275817871094,-0.729810893535614
1770952060170785300,23.382785400390624,6.946363925933838,-8.449056625366211,-0.5575276613235474
1770952060189756000,23.401755859375,6.429514408111572,-8.171489715576172,-0.20338992774486542
1770952060208726300,23.420726318359375,7.2813591957092285,-7.542177200317383,-0.7130611538887024
1770952060227696600,23.439696533203126,7.389036178588867,-7.802994728088379,-0.7465606927871704
1770952060246667000,23.4586669921875,6.872186660766602,-7.427321434020996,-0.7848458290100098
1770952060265637400,23.477637451171876,6.6352972984313965,-7.274180889129639,-0.07896314561367035
1770952060284607700,23.496607666015624,6.51326322555542,-6.903293132781982,-0.20817556977272034
1770952060303578000,23.515578125,6.661618232727051,-7.869993686676025,-0.7992027401924133
1770952060322548500,23.534548583984375,7.056434154510498,-7.776673793792725,-0.9451649188995361
1770952060341518800,23.553518798828126,7.159325122833252,-7.439285755157471,-0.43549370765686035
1770952060360489200,23.5724892578125,6.482156753540039,-7.6498541831970215,-0.009571290574967861
1770952060379459600,23.59145947265625,7.841279983520508,-7.525427341461182,-0.5312066078186035
1770952060398430000,23.610429931640624,7.154539585113525,-8.001599311828613,-0.916451096534729
1770952060417400300,23.629400390625,7.080362319946289,-8.283951759338379,-0.7800601720809937
1770952060436370700,23.64837060546875,7.652246952056885,-7.869993686676025,-0.8470591902732849
1770952060455341000,23.667341064453126,7.135396957397461,-8.023134231567383,-0.24646073579788208
1770952060474311400,23.6863115234375,7.314858913421631,-7.688138961791992,-0.7728816866874695
1770952060493281800,23.70528173828125,7.537391185760498,-8.049455642700195,-0.2727817893028259
1770952060512252200,23.724252197265624,6.812366008758545,-8.140382766723633,-0.8805587291717529
1770952060531222500,23.743222412109375,6.932007312774658,-8.049455642700195,-0.8542376756668091
1770952060550193000,23.76219287109375,7.506284713745117,-7.482356548309326,-0.33499518036842346
1770952060578648600,23.790648681640626,7.152146816253662,-8.042277336120605,-0.7130611538887024
1770952060597619000,23.809618896484373,7.130611419677734,-7.841279983520508,-0.519242525100708
1770952060616589300,23.82858935546875,7.0061845779418945,-7.6498541831970215,-0.3206382393836975
1770952060635559700,23.8475595703125,6.857829570770264,-7.1162543296813965,-0.6628118753433228
1770952060654530000,23.866530029296875,7.135396957397461,-7.659425258636475,-0.5288137793540955
1770952060673500400,23.88550048828125,7.178467750549316,-7.968099594116211,-0.8159525394439697
1770952060692470800,23.904470703125,7.17368221282959,-8.47298526763916,-0.698704183101654
1770952060720926200,23.93292626953125,7.207181930541992,-7.6666035652160645,-0.5575276613235474
1770952060739896600,23.951896484375,7.130611419677734,-7.463213920593262,-0.7585247755050659
1770952060758867000,23.970866943359376,6.865008354187012,-7.597211837768555,-0.5551348328590393
1770952060777837300,23.98983740234375,7.379465103149414,-7.642675399780273,-0.23449662327766418
1770952060796807700,24.0088076171875,7.310073375701904,-7.262216567993164,-0.7178468108177185
1770952060815778000,24.027778076171874,7.152146816253662,-7.645068168640137,-0.4618147611618042
1770952060834748400,24.04674853515625,7.525427341461182,-7.513463020324707,-0.5479564070701599
1770952060853718800,24.06571875,7.274180889129639,-7.9250288009643555,-0.7202396392822266
1770952060872689200,24.084689208984376,6.427121639251709,-7.989634990692139,-0.4331009089946747
1770952060891659500,24.103659423828127,7.156932353973389,-7.609176158905029,-0.6939185857772827
1770952060910630000,24.1226298828125,7.341179847717285,-7.558926582336426,-0.397208571434021
1770952060929600300,24.141600341796874,6.025127410888672,-7.630711555480957,-0.4833501875400543
1770952060948570600,24.160570556640625,6.32662296295166,-7.70967435836792,-0.21774685382843018
1770952060967541000,24.179541015625,7.077969551086426,-7.657032489776611,-0.6915257573127747
1770952060986511400,24.198511474609376,6.477370738983154,-7.704888820648193,-0.16271193325519562
1770952061005481700,24.217481689453123,6.3361945152282715,-7.88913631439209,-0.059820566326379776
1770952061024452000,24.2364521484375,6.788437843322754,-7.267002582550049,-0.48095735907554626
1770952061043422500,24.25542236328125,6.900900363922119,-7.934599876403809,-0.42831525206565857
1770952061062392600,24.274392578125,6.362515449523926,-8.274380683898926,-0.5359922647476196
1770952061081363000,24.293363037109376,7.348358154296875,-7.884350776672363,-0.6556333899497986
1770952061100333300,24.312333251953124,7.247859954833984,-7.001399040222168,-0.44027936458587646
1770952061119303700,24.3313037109375,5.773880958557129,-7.29093074798584,-0.26560330390930176
1770952061138274000,24.350274169921875,7.04925537109375,-7.200003147125244,-0.5455635786056519
1770952061157244400,24.369244384765626,7.853243827819824,-7.264609336853027,0.2273181527853012
1770952061176214800,24.38821484375,6.293123722076416,-7.197610378265381,0.23688943684101105
1770952061195185200,24.40718505859375,6.1710896492004395,-8.338987350463867,-0.6819544434547424
1770952061214155500,24.426155517578124,8.157132148742676,-8.429914474487305,-0.5694918036460876
1770952061233126000,24.4451259765625,6.716653347015381,-8.410771369934082,-0.641276478767395
1770952061252096300,24.46409619140625,6.228517532348633,-8.109275817871094,-0.5072783827781677
1770952061271066400,24.48306640625,6.905686378479004,-7.877171993255615,-0.4713860750198364
1770952061290037000,24.502037109375,7.408178806304932,-7.8077802658081055,-0.6867401003837585
1770952061309007000,24.521007080078125,6.893722057342529,-8.011170387268066,-0.38763725757598877
1770952061327977500,24.5399775390625,6.307480335235596,-7.968099594116211,-0.4019941985607147
1770952061346947800,24.55894775390625,6.812366008758545,-8.059026718139648,-0.3038884699344635
1770952061365918200,24.577918212890626,6.589833736419678,-7.611568927764893,-0.10767702013254166
