time,seconds_elapsed,z,y,x
1771038402097866800,0.12386669921875,0,0,0
1771038402116834800,0.142834716796875,-0.007826805114746094,-0.11607646942138672,-0.11779451370239258
1771038402135803100,0.16180322265625,-0.2992238998413086,-0.15398716926574707,-0.32119131088256836
1771038402154771200,0.180771240234375,-0.0827779769897461,-0.042903900146484375,-0.42578649520874023
1771038402173739300,0.1997392578125,0.7702054977416992,-0.0839543342590332,0.10826253890991211
1771038402192707600,0.21870751953125,1.0198974609375,-0.33884358406066895,0.6258842945098877
1771038402211675600,0.237675537109375,0.1777362823486328,-0.09099817276000977,0.7247304916381836
1771038402230643700,0.256643798828125,-0.4308509826660156,0.40802645683288574,0.6248555183410645
1771038402249611800,0.27561181640625,-0.5993423461914062,1.1113157272338867,0.07528257369995117
1771038402268580000,0.294580078125,-1.1265735626220703,0.8073546886444092,0.32973217964172363
1771038402287548200,0.313548095703125,-0.8702993392944336,0.6430261135101318,0.524756669998169
1771038402306516200,0.33251611328125,0.2699155807495117,0.2023627758026123,-0.38178038597106934
1771038402325484300,0.351484375,1.107797622680664,-1.304988145828247,-0.22975969314575195
1771038402344452600,0.37045263671875,0.15180301666259766,-1.2922708988189697,0.1305239200592041
1771038402363420700,0.389420654296875,-1.8774003982543945,-0.21177005767822266,0.9827139377593994
1771038402382388700,0.408388671875,-2.2990922927856445,1.454195261001587,-0.43335986137390137
1771038402401356800,0.427356689453125,-1.4744296073913574,1.2531416416168213,-1.807868480682373
1771038402420324900,0.446324951171875,-0.1661825180053711,-0.32196569442749023,-1.0035691261291504
1771038402439293200,0.465293212890625,0.5086488723754883,-1.095754861831665,-0.6185903549194336
1771038402458261200,0.48426123046875,-0.13177967071533203,-1.0626840591430664,0.048279762268066406
1771038402477229600,0.5032294921875,-0.5014677047729492,-0.48211026191711426,-0.5196452140808105
1771038402496197600,0.52219775390625,0.5515642166137695,-0.5547599792480469,-0.5264999866485596
1771038402515165700,0.541165771484375,0.7343158721923828,-0.5699601173400879,-0.6275031566619873
1771038402534133800,0.5601337890625,-1.742006778717041,-0.6425321102142334,0.2413398027420044
1771038402553102000,0.57910205078125,-1.236670970916748,0.5836608409881592,0.48927295207977295
1771038402572070100,0.598070068359375,0.8839826583862305,0.8890280723571777,1.4212117195129395
1771038402591038200,0.6170380859375,1.1493425369262695,0.08381938934326172,1.4438509941101074
1771038402610006300,0.63600634765625,0.2913932800292969,-0.3207700252532959,1.2477169036865234
1771038402628974600,0.654974609375,-0.47197628021240234,0.30942201614379883,0.227278470993042
1771038402647942700,0.673942626953125,-0.8444681167602539,0.14722347259521484,-0.10822051763534546
1771038402666910700,0.69291064453125,-0.4813194274902344,-0.9226608276367188,-0.055315129458904266
1771038402685878800,0.711878662109375,-1.8087263107299805,-1.5615497827529907,0.24229326844215393
1771038402704846800,0.730846923828125,-0.15851497650146484,0.0796966552734375,0.40225034952163696
1771038402723815200,0.749815185546875,2.4007768630981445,0.20338892936706543,-0.340856671333313
1771038402742783200,0.768783203125,3.174570083618164,2.610473155975342,1.4728158712387085
1771038402761751300,0.787751220703125,-0.6824951171875,1.6971981525421143,2.77070689201355
1771038402780719400,0.80671923828125,-0.7508411407470703,-0.29950523376464844,0.5991339683532715
1771038402799687700,0.825687744140625,0.06516742706298828,0.09626293182373047,1.1201926469802856
1771038402818655700,0.84465576171875,0.6804790496826172,0.6472234725952148,1.5081524848937988
1771038402837623800,0.863623779296875,1.1061935424804688,0.7462496757507324,1.2501444816589355
1771038402856592000,0.882591796875,1.1610727310180664,0.811884880065918,1.4153077602386475
1771038402875560200,0.901560302734375,0.44592761993408203,0.8961477279663086,1.3101820945739746
1771038402894528300,0.9205283203125,-1.8006114959716797,0.7044453620910645,0.7148561477661133
1771038402913496300,0.939496337890625,-1.8417229652404785,0.6151046752929688,0.3650839328765869
1771038402932464400,0.95846435546875,0.016328811645507812,-0.0011610984802246094,0.900968074798584
1771038402951432700,0.9774326171875,0.8438806533813477,-0.25357532501220703,0.7222950458526611
1771038402970400800,0.99640087890625,-0.18000221252441406,-0.34626340866088867,1.0822291374206543
1771038402989368800,1.015368896484375,-0.05420494079589844,-0.37448978424072266,1.2758076190948486
1771038403008337000,1.0343369140625,0.38298988342285156,-0.8801088333129883,0.7130849361419678
1771038403027305200,1.05330517578125,-0.5807919502258301,-1.657900333404541,-0.3434278964996338
1771038403046273300,1.072273193359375,-0.16753578186035156,-1.9359748363494873,-1.0042235851287842
1771038403065241300,1.091241455078125,-0.26694679260253906,-1.9608802795410156,-0.9767162799835205
1771038403084209400,1.11020947265625,-1.40480375289917,-1.543285608291626,-0.7587184906005859
1771038403103177700,1.129177734375,-2.5406618118286133,-1.2763409614562988,-0.42164134979248047
1771038403122145800,1.148145751953125,-3.1291251182556152,-1.0131707191467285,-0.0665445327758789
1771038403141113900,1.16711376953125,-3.32358980178833,-0.6472640037536621,0.747279167175293
1771038403160082000,1.18608203125,-3.9686899185180664,-0.1994767189025879,1.168306827545166
1771038403179050200,1.20505029296875,-3.7774510383605957,0.39054298400878906,2.4283227920532227
1771038403198018300,1.224018310546875,-2.906067371368408,0.40885353088378906,3.2104249000549316
1771038403216986400,1.242986328125,-0.9699912071228027,0.08024978637695312,3.8546652793884277
1771038403235954700,1.26195458984375,1.3729424476623535,0.20312833786010742,3.1883702278137207
1771038403254922800,1.2809228515625,1.885146141052246,-0.24702215194702148,3.9312868118286133
1771038403273890800,1.299890869140625,1.4701743125915527,-0.8485076427459717,5.917153835296631
1771038403292859000,1.31885888671875,3.8057398796081543,0.7149605751037598,0.6538753509521484
1771038403311827000,1.337826904296875,5.931304454803467,-1.16741943359375,0.5156512260437012
1771038403330795300,1.356795166015625,5.3920392990112305,-1.580737829208374,2.073801040649414
1771038403349763300,1.375763427734375,3.9089694023132324,0.3209500312805176,1.4942941665649414
1771038403368731400,1.3947314453125,3.065366268157959,0.42873334884643555,0.06439208984375
1771038403387699700,1.41369970703125,2.201531410217285,0.1732797622680664,-0.8015742301940918
1771038403406667800,1.432667724609375,3.6316232681274414,-0.4936394691467285,-1.7238354682922363
1771038403425635800,1.4516357421875,2.976989269256592,-1.0683374404907227,-2.175994873046875
1771038403444604200,1.470604248046875,0.708345890045166,-1.5976934432983398,-1.9483919143676758
1771038403463572200,1.489572265625,-0.20616817474365234,-1.9042553901672363,-1.6182122230529785
1771038403482540300,1.508540283203125,0.6897907257080078,-1.8396835327148438,-1.3590092658996582
1771038403501508400,1.52750830078125,2.2204885482788086,-2.5001516342163086,-1.1700139045715332
1771038403520476700,1.5464765625,0.8443264961242676,-0.5422253608703613,-4.046745777130127
1771038403539444700,1.56544482421875,-0.7226400375366211,-1.4572815895080566,-1.7135610580444336
1771038403558412800,1.584412841796875,-1.098252773284912,-0.6809935569763184,0.9965863227844238
1771038403577381000,1.603381103515625,-6.3581767082214355,-0.7599763870239258,-0.528083086013794
1771038403596349200,1.62234912109375,-1.5141315460205078,-3.1140613555908203,-3.1988139152526855
1771038403615317200,1.641317138671875,1.741544246673584,-4.27968692779541,-4.748963356018066
1771038403634285300,1.660285400390625,-1.9569610357284546,-2.623495101928711,-5.299150466918945
1771038403653253600,1.679253662109375,-5.137379169464111,-1.0419540405273438,-1.8458304405212402
1771038403672221700,1.6982216796875,-0.7199103832244873,1.4489431381225586,3.337963104248047
1771038403691189800,1.717189697265625,3.5925488471984863,4.555209159851074,1.7805373668670654
1771038403710158000,1.736157958984375,5.644069671630859,3.148789405822754,2.2587883472442627
1771038403729126100,1.755126220703125,4.286045074462891,2.2330427169799805,0.06006908416748047
1771038403748094500,1.774094482421875,2.1411705017089844,2.671937942504883,0.7514567375183105
1771038403767062500,1.7930625,0.7214999198913574,4.022879123687744,0.6103460788726807
1771038403786030600,1.812030517578125,1.1743602752685547,4.542994022369385,0.3466120958328247
1771038403831052800,1.857052734375,4.185291290283203,2.6981635093688965,-1.267220139503479
1771038403850021000,1.876021240234375,2.7470550537109375,2.7838945388793945,0.5935829877853394
1771038403868989200,1.8949892578125,-0.027705669403076172,2.688530921936035,0.31492435932159424
1771038403887957200,1.913957275390625,-2.6888554096221924,0.8393974304199219,-0.9753189086914062
1771038403906925600,1.932925537109375,-2.2097957134246826,-0.14460372924804688,-2.8148772716522217
1771038403925893600,1.9518935546875,-0.34512901306152344,-1.8294434547424316,-2.951676368713379
1771038403944861700,1.97086181640625,-1.0171189308166504,-2.7246084213256836,-1.652906894683838
1771038403963830000,1.989830078125,-4.374952793121338,-0.9621925354003906,0.9851322174072266
1771038403982798000,2.008798095703125,-6.241874694824219,-1.826296329498291,1.9637579917907715
1771038404001766400,2.027766357421875,-7.114101409912109,-4.5944695472717285,1.8374595642089844
1771038404020734500,2.046734375,-6.5821733474731445,-6.422766208648682,1.355774164199829
1771038404039702500,2.06570263671875,-5.548077583312988,-7.555286884307861,1.2910172939300537
1771038404058670800,2.0846708984375,-4.850927352905273,-7.810698986053467,2.8516182899475098
1771038404077639000,2.103638916015625,-4.583918571472168,-7.5182785987854,4.376723289489746
1771038404096607200,2.122607177734375,-2.8783464431762695,-6.619812488555908,2.9997527599334717
1771038404115575300,2.1415751953125,-0.6538283824920654,-6.071333885192871,1.6558886766433716
1771038404134543400,2.16054345703125,-1.4931763410568237,-4.641884803771973,2.4847476482391357
1771038404153511700,2.17951171875,-3.006150960922241,-3.3041820526123047,3.2485527992248535
1771038404172479700,2.198479736328125,-2.0374515056610107,-1.5862174034118652,2.567416191101074
1771038404191448000,2.217447998046875,-0.0754857063293457,0.8405036926269531,0.8631064891815186
1771038404210416000,2.236416015625,2.8668935298919678,2.3143935203552246,-1.647948980331421
1771038404229384400,2.255384521484375,4.4536027908325195,3.49375057220459,-2.5964386463165283
1771038404248352500,2.2743525390625,5.524347305297852,3.9648094177246094,-3.015397071838379
1771038404267320800,2.29332080078125,3.6494345664978027,4.592470169067383,-2.7288875579833984
1771038404286289000,2.312288818359375,2.907998561859131,4.999416828155518,-3.1585378646850586
1771038404305257000,2.331257080078125,4.929641246795654,4.463533401489258,-4.5448737144470215
1771038404324225300,2.350225341796875,5.094120025634766,2.485609531402588,-4.582591533660889
1771038404343193600,2.369193603515625,2.8643136024475098,1.0317931175231934,-2.7486391067504883
1771038404362161700,2.38816162109375,0.48567819595336914,-0.21960115432739258,-0.31806325912475586
1771038404381129700,2.407129638671875,-1.334554672241211,-1.2129645347595215,1.2728419303894043
1771038404400098000,2.42609814453125,-1.9053750038146973,-0.7866673469543457,1.429182529449463
1771038404419066000,2.445066162109375,-0.555363655090332,-1.3135766983032227,0.16776275634765625
1771038404438034400,2.464034423828125,1.1112818717956543,-2.5258827209472656,-1.2287201881408691
1771038404457002800,2.483002685546875,0.7884402275085449,-3.147838830947876,-1.312887191772461
1771038404475970800,2.501970703125,-0.48908567428588867,-2.6766247749328613,-0.7383136749267578
1771038404494939100,2.520939208984375,-2.407413959503174,-1.8860454559326172,0.10359430313110352
1771038404513907200,2.5399072265625,-2.2888224124908447,-1.5998539924621582,0.15047168731689453
1771038404532875500,2.55887548828125,-0.7706890106201172,-1.686795711517334,-0.40204620361328125
1771038404551843600,2.577843505859375,0.0933985710144043,-1.6679601669311523,-0.5879240036010742
1771038404570812000,2.59681201171875,0.7066516876220703,-1.61533522605896,-0.2425990104675293
1771038404589780000,2.615780029296875,-0.502415657043457,-1.2543904781341553,0.5226335525512695
1771038404608748300,2.634748291015625,-1.5245513916015625,-0.4863905906677246,1.883054256439209
1771038404627716600,2.653716552734375,-1.1306943893432617,1.5624065399169922,2.4708147048950195
1771038404646684700,2.6726845703125,1.9367918968200684,2.213235378265381,1.4034571647644043
1771038404665653000,2.691653076171875,4.66459846496582,1.6521449089050293,0.2871894836425781
1771038404684621000,2.71062109375,5.448652267456055,0.8930583000183105,0.005005836486816406
1771038404703589400,2.72958935546875,3.39315128326416,0.40465760231018066,0.14147615432739258
1771038404722557400,2.748557373046875,0.8006606101989746,0.6280491352081299,0.8868770599365234
1771038404741525800,2.76752587890625,-1.3164772987365723,1.685776948928833,2.0134835243225098
1771038404760494000,2.786494140625,0.2674698829650879,2.272800922393799,1.315659999847412
1771038404779462100,2.805462158203125,3.7418718338012695,2.368101119995117,-0.36241960525512695
1771038404798430500,2.824430419921875,5.941666126251221,1.7848784923553467,-2.198981761932373
1771038404817398500,2.8433984375,5.928186416625977,1.37925124168396,-3.1805996894836426
1771038404836366800,2.862366943359375,4.978891849517822,1.352999210357666,-3.7832107543945312
1771038404855335200,2.881335205078125,5.151463985443115,1.6852734088897705,-3.5835485458374023
1771038404874303500,2.900303466796875,6.5541181564331055,2.1382319927215576,-3.580087184906006
1771038404893271600,2.919271484375,8.752630233764648,2.190253257751465,-3.8200201988220215
1771038404912239900,2.938239990234375,10.335990905761719,1.4065966606140137,-4.06686544418335
1771038404931208200,2.957208251953125,9.43325424194336,0.41944169998168945,-4.010955333709717
1771038404950176500,2.976176513671875,6.094680309295654,0.686431884765625,-2.8069353103637695
1771038404969144600,2.99514453125,2.6106324195861816,0.7300772666931152,-1.9857730865478516
1771038404988113000,3.01411279296875,0.7524662017822266,0.0660557746887207,-2.275071620941162
1771038405007081200,3.033081298828125,-0.26598310470581055,-0.775181770324707,-1.9784469604492188
1771038405026049500,3.052049560546875,-0.5302734375,-1.4460783004760742,-0.9782624244689941
1771038405045017600,3.071017578125,-1.0545973777770996,-2.0397872924804688,0.37384557723999023
1771038405063986000,3.08998583984375,-2.090843677520752,-2.260650634765625,2.2808079719543457
1771038405082954200,3.108954345703125,-2.9702117443084717,-1.6526055335998535,3.702526569366455
1771038405101922600,3.127922607421875,-3.483201742172241,-1.8563461303710938,3.4849512577056885
1771038405120890600,3.146890625,-2.701669454574585,-2.2884607315063477,4.643054485321045
1771038405139859000,3.16585888671875,-1.8997453451156616,-2.8550312519073486,3.9145970344543457
1771038405158827300,3.1848271484375,-0.9298732280731201,-3.0154166221618652,3.5952939987182617
1771038405177795600,3.203795654296875,-1.2306747436523438,-3.1741158962249756,3.961831569671631
1771038405196764000,3.222763916015625,-1.2502601146697998,-2.7649338245391846,3.0430374145507812
1771038405215732200,3.241732177734375,-0.9033652544021606,-2.8058953285217285,1.7613310813903809
1771038405234700300,3.2607001953125,-0.5755214691162109,-2.76100754737854,0.7766661643981934
1771038405253668600,3.279668701171875,-1.930055856704712,-2.549083709716797,0.017534255981445312
1771038405272637000,3.298636962890625,-1.2112586498260498,-1.6820487976074219,-0.8333897590637207
1771038405291605200,3.317605224609375,-0.5091713666915894,-1.6174702644348145,-2.560859203338623
1771038405310573600,3.336573486328125,-3.236769676208496,-3.1332719326019287,-3.692232131958008
1771038405329542000,3.3555419921875,-4.02479362487793,-2.963468551635742,-3.815913200378418
1771038405348510200,3.37451025390625,-2.8267288208007812,-1.9259376525878906,-2.050689697265625
1771038405367478500,3.393478515625,-1.0754063129425049,-0.7501158714294434,-0.2708740234375
1771038405386446800,3.41244677734375,1.6360862255096436,-0.45661020278930664,0.21605634689331055
1771038405405415200,3.431415283203125,1.170097827911377,-0.440920352935791,-0.32677459716796875
1771038405424383500,3.450383544921875,-0.8644578456878662,-0.49271249771118164,0.1379075050354004
1771038405443351800,3.469351806640625,-2.075406551361084,-1.0553812980651855,0.3465747833251953
1771038405462320000,3.488320068359375,-3.5208826065063477,-1.382859706878662,0.6047844886779785
1771038405481288400,3.507288330078125,-4.813056468963623,-1.5962014198303223,2.0012030601501465
1771038405500256800,3.5262568359375,-4.92325496673584,-0.697298526763916,3.1732935905456543
1771038405519225000,3.54522509765625,-4.869050025939941,0.5313839912414551,2.475184679031372
1771038405538193400,3.564193359375,-0.04081535339355469,-1.4841690063476562,-1.067502498626709
1771038405557161700,3.58316162109375,-1.0101776123046875,-1.3273086547851562,-0.18282175064086914
1771038405576130000,3.602130126953125,-3.7306272983551025,-0.5314793586730957,3.0098180770874023
1771038405595098400,3.621098388671875,-4.804221153259277,-0.7186589241027832,3.9010276794433594
1771038405614066700,3.640066650390625,-4.272869110107422,-1.6965749263763428,2.9810545444488525
1771038405633035000,3.659034912109375,-3.1095571517944336,-1.995530128479004,1.672339677810669
1771038405652003300,3.67800341796875,-1.529754638671875,-1.3528001308441162,1.4991904497146606
1771038405670971600,3.6969716796875,-0.30411815643310547,-0.7453813552856445,2.574005126953125
1771038405689940000,3.71593994140625,-0.7144246101379395,-0.12120723724365234,4.212247848510742
1771038405708908300,3.734908203125,-1.4648475646972656,-0.02399587631225586,4.462213516235352
1771038405727876600,3.753876708984375,0.18225574493408203,-1.2977783679962158,1.9397670030593872
1771038405746845000,3.772844970703125,2.0811662673950195,-2.0275750160217285,-0.5043161511421204
1771038405765813200,3.791813232421875,1.9791059494018555,-1.2808001041412354,-1.1055445671081543
1771038405784781800,3.81078173828125,0.8483705520629883,0.33117151260375977,1.6351392269134521
1771038405803750100,3.829750244140625,1.0178661346435547,1.1697607040405273,3.140024185180664
1771038405822718500,3.848718505859375,2.175339698791504,0.30840396881103516,2.589348793029785
1771038405841686800,3.867686767578125,4.253538131713867,-0.09488439559936523,2.06624698638916
1771038405860655000,3.886655029296875,5.14592170715332,0.6573338508605957,2.083768367767334
1771038405879623400,3.90562353515625,4.388035774230957,1.325228214263916,2.82121205329895
1771038405898592000,3.924592041015625,2.796475410461426,2.514559507369995,3.389416217803955
1771038405917560300,3.943560302734375,2.597001075744629,3.819039821624756,2.890258312225342
1771038405936528600,3.962528564453125,3.83642578125,4.231235504150391,2.6655712127685547
1771038405955497000,3.9814970703125,5.041215896606445,3.831331253051758,1.400267481803894
1771038405974465300,4.00046533203125,6.596432685852051,4.072944641113281,0.2115706205368042
1771038405993433900,4.019433837890625,4.6248273849487305,3.7761125564575195,0.4978123605251312
1771038406012402200,4.038402099609375,3.004544258117676,2.566561698913574,0.4735368490219116
1771038406031370500,4.05737060546875,1.224024772644043,1.3771114349365234,0.03130638599395752
1771038406050338800,4.0763388671875,-0.4953756332397461,0.800417423248291,0.19351965188980103
1771038406069307400,4.095307373046875,-1.6957149505615234,0.5441727638244629,0.17913609743118286
1771038406088275700,4.114275634765625,-2.1385927200317383,-0.24338006973266602,-0.4826596975326538
1771038406107244000,4.133244140625,-2.084627151489258,-1.5718157291412354,-0.8049819469451904
1771038406126212400,4.15221240234375,-3.2853007316589355,-1.7315747737884521,-1.1605045795440674
1771038406145181000,4.171180908203125,-4.054701328277588,-2.089761257171631,-1.273231029510498
1771038406164149200,4.190149169921875,-5.09104061126709,-2.270634651184082,-1.3078997135162354
1771038406183117600,4.20911767578125,-5.919857501983643,-2.6258344650268555,-1.907320499420166
1771038406202086100,4.228086181640625,-5.429787635803223,-2.3777823448181152,-2.7653088569641113
1771038406221054500,4.247054443359375,-2.5547990798950195,-1.4634251594543457,-3.576449394226074
1771038406240022800,4.266022705078125,0.43617725372314453,-0.18317937850952148,-3.983119487762451
1771038406258991000,4.2849912109375,1.4528002738952637,1.1498756408691406,-3.3294076919555664
1771038406277959700,4.303959716796875,1.5535874366760254,1.1476855278015137,-2.390197277069092
1771038406296928000,4.322927978515625,0.8050093650817871,0.6593112945556641,-1.514373779296875
1771038406315896300,4.341896240234375,-0.40295839309692383,0.2060565948486328,-0.46822452545166016
1771038406334865000,4.360864990234375,-1.1531305313110352,-0.5076642036437988,-0.04100179672241211
1771038406353833200,4.379833251953125,-1.9000201225280762,-1.188854694366455,0.2313528060913086
1771038406372801500,4.398801513671875,-1.6158838272094727,-1.4617807865142822,0.18764352798461914
1771038406391770000,4.41777001953125,-0.621924877166748,-1.5266921520233154,1.4437668323516846
1771038406410738400,4.436738525390625,-1.072427749633789,-1.1670312881469727,2.3621485233306885
1771038406429706800,4.455706787109375,-0.5357260704040527,-0.603520393371582,1.8360857963562012
1771038406448675300,4.47467529296875,0.5214624404907227,-0.24477529525756836,1.3400664329528809
1771038406467643600,4.4936435546875,1.1198616027832031,0.4432649612426758,0.2967538833618164
1771038406486612200,4.5126123046875,4.491392135620117,1.9141340255737305,-1.5270638465881348
1771038406505580500,4.53158056640625,9.745869636535645,4.56555700302124,-1.2038946151733398
1771038406524549000,4.550549072265625,9.0382080078125,6.684473991394043,0.03401517868041992
1771038406543517400,4.569517333984375,8.516355514526367,6.9643235206604,-1.6971464157104492
1771038406562485800,4.58848583984375,9.60169506072998,6.818253993988037,-4.7353692054748535
1771038406581454300,4.607454345703125,8.87867546081543,6.515569686889648,-6.749047756195068
1771038406600422700,4.626422607421875,8.251476287841797,6.03364372253418,-7.894769191741943
1771038406619391000,4.645390869140625,5.85671329498291,5.537440299987793,-7.064211368560791
1771038406638359600,4.664359619140625,3.3312644958496094,4.408449649810791,-7.4750542640686035
1771038406657327900,4.683327880859375,1.4473762512207031,2.6381406784057617,-6.32972526550293
1771038406676296400,4.70229638671875,-0.17841100692749023,0.45198822021484375,-3.3464772701263428
1771038406695264800,4.7212646484375,-1.876561164855957,-1.6651215553283691,-0.4807732105255127
1771038406714233300,4.7402333984375,-0.7281007766723633,-4.151638031005859,-0.5562231540679932
1771038406733201700,4.75920166015625,1.5603601932525635,-6.716518402099609,-2.531496524810791
1771038406752170200,4.778170166015625,-0.4917290210723877,-6.206712245941162,-1.2402336597442627
1771038406771138600,4.797138671875,-2.8810324668884277,-6.544498443603516,0.15749463438987732
1771038406790107000,4.81610693359375,-5.251532554626465,-8.888509750366211,-0.3566642999649048
1771038406809075500,4.835075439453125,-3.54510498046875,-8.685080528259277,-0.4082227349281311
1771038406828043800,4.854043701171875,-3.094043016433716,-8.516217231750488,-0.995669960975647
1771038406847012400,4.873012451171875,-2.8287930488586426,-10.355823516845703,-1.8296846151351929
1771038406865980700,4.891980712890625,-4.331540107727051,-7.971912384033203,-0.25102365016937256
1771038406884949200,4.91094921875,-3.379361629486084,-7.350127696990967,-0.5430126190185547
1771038406903917600,4.92991748046875,-2.0286684036254883,-5.99879789352417,-0.97652667760849
1771038406922886100,4.94888623046875,-0.6606143712997437,-3.983323097229004,-1.5557270050048828
1771038406941854500,4.9678544921875,1.126265287399292,-1.7152643203735352,-1.0961674451828003
1771038406960823000,4.986822998046875,1.853076457977295,1.0714635848999023,-0.10209536552429199
1771038406979791400,5.005791259765625,1.7922859191894531,3.965033531188965,-0.791358232498169
1771038406998760000,5.024760009765625,1.4039227962493896,6.138751029968262,-1.0634644031524658
1771038407017728300,5.043728271484375,0.7458550930023193,7.550806045532227,-1.214499592781067
1771038407036696800,5.06269677734375,0.8816606402397156,7.394357681274414,-1.419290542602539
1771038407055665200,5.0816650390625,0.8686404228210449,5.690411567687988,-1.1186190843582153
1771038407074633700,5.1006337890625,0.3110208213329315,4.015651702880859,-0.20229196548461914
1771038407093602000,5.11960205078125,-0.5453057289123535,2.349663734436035,0.38956546783447266
1771038407112570600,5.138570556640625,-1.0690217018127441,0.5212326049804688,0.4574296474456787
1771038407131539000,5.1575390625,-1.4684656858444214,-1.1208934783935547,0.11005997657775879
1771038407150507300,5.17650732421875,-1.5441672801971436,-2.17633056640625,-0.6863386631011963
1771038407169475800,5.195475830078125,-1.457897424697876,-3.0169172286987305,-1.3499648571014404
1771038407188444200,5.214444091796875,-1.476395845413208,-3.6733756065368652,-1.5205183029174805
1771038407207412700,5.233412841796875,-1.7663042545318604,-4.192521095275879,-1.277449131011963
1771038407226381300,5.25238134765625,-1.4171934127807617,-4.553774833679199,-1.2842130661010742
1771038407245349600,5.271349609375,-0.8014529943466187,-4.525386810302734,-1.5690412521362305
1771038407264318000,5.29031787109375,-0.31844669580459595,-4.3566765785217285,-2.0262653827667236
1771038407283286500,5.30928662109375,-0.44058239459991455,-4.338382720947266,-2.2403666973114014
1771038407302255000,5.328255126953125,-0.6344631314277649,-4.286842346191406,-2.579524517059326
1771038407321223400,5.347223388671875,-0.6213170886039734,-4.497204780578613,-2.9690256118774414
1771038407340191700,5.366191650390625,-0.5217370986938477,-4.6395978927612305,-2.9404330253601074
1771038407359160300,5.385160400390625,-0.6604480147361755,-4.242530822753906,-2.657022714614868
1771038407378129000,5.40412890625,-0.6160591244697571,-3.593939781188965,-2.5748770236968994
1771038407397097200,5.42309716796875,-0.29690444469451904,-2.3781113624572754,-2.0689682960510254
1771038407416065800,5.442065673828125,0.44363582134246826,-0.9571375846862793,-0.9401068687438965
1771038407435034000,5.4610341796875,0.07235169410705566,0.6567788124084473,1.1295757293701172
1771038407454002400,5.48000244140625,-0.1887379288673401,3.188833713531494,4.0787553787231445
1771038407472971000,5.498970947265625,-0.0843232274055481,6.34440279006958,5.4777679443359375
1771038407491939600,5.517939697265625,1.718744158744812,8.566001892089844,5.21491003036499
1771038407510908000,5.536907958984375,2.626441478729248,9.578801155090332,4.462352275848389
1771038407529876200,5.555876220703125,2.428642749786377,9.666908264160156,3.7754573822021484
1771038407548844800,5.5748447265625,2.206190824508667,7.972800254821777,2.7015414237976074
1771038407567813400,5.5938134765625,1.517570972442627,5.544434547424316,1.874882698059082
1771038407586781700,5.61278173828125,0.19660937786102295,3.1462883949279785,2.2595901489257812
1771038407605750300,5.631750244140625,-0.4389611482620239,1.4294838905334473,2.4433398246765137
1771038407624718600,5.650718505859375,0.0015462636947631836,-0.29613733291625977,1.6201143264770508
1771038407643687200,5.669687255859375,0.3369934558868408,-2.119417190551758,0.1031489372253418
1771038407662655500,5.688655517578125,-0.6025926470756531,-3.3912386894226074,-1.3575553894042969
1771038407681624000,5.7076240234375,-1.971930742263794,-4.2847900390625,-2.624558925628662
1771038407700592400,5.72659228515625,-2.9101943969726562,-4.760595798492432,-3.2128868103027344
1771038407719560700,5.745560791015625,-3.055234432220459,-4.706350326538086,-3.457180976867676
1771038407738529300,5.764529296875,-2.5675525665283203,-4.672792911529541,-3.632613182067871
1771038407757497900,5.783497802734375,-1.7718830108642578,-4.303341865539551,-3.827296733856201
1771038407776466200,5.802466064453125,-0.419120728969574,-3.9713246822357178,-3.8535122871398926
1771038407795434800,5.821434814453125,-0.6179999113082886,-2.7250490188598633,-3.7207512855529785
1771038407814403000,5.840403076171875,-1.1456836462020874,-2.3754501342773438,-3.570457935333252
1771038407833371400,5.859371337890625,-0.9941954612731934,-1.4615933895111084,-3.5493760108947754
1771038407852340000,5.878340087890625,-0.7886804938316345,-2.2514290809631348,-4.332643508911133
1771038407871308500,5.89730859375,-0.07446026802062988,-2.8181939125061035,-4.829319953918457
1771038407890276900,5.91627685546875,-0.13997173309326172,-2.1513383388519287,-4.536501884460449
1771038407909245200,5.9352451171875,-0.10327988862991333,-1.637040376663208,-2.5197792053222656
1771038407928213800,5.9542138671875,-0.45199018716812134,-2.9252095222473145,-1.4395833015441895
1771038407947182000,5.97318212890625,-0.3536892235279083,-2.512648105621338,0.7252016067504883
1771038407966150700,5.992150634765625,-0.5643126368522644,-0.6195147037506104,4.439383506774902
1771038407985119000,6.011118896484375,0.2056933045387268,1.3570976257324219,7.054238319396973
1771038408004087600,6.030087646484375,1.7912815809249878,2.0690925121307373,6.76439094543457
1771038408023056000,6.049055908203125,2.4786930084228516,1.9324660301208496,5.754778861999512
1771038408042024400,6.0680244140625,0.4092852771282196,2.676703929901123,5.665077209472656
1771038408060992800,6.08699267578125,-0.7379559278488159,3.80546236038208,5.912762641906738
1771038408079961300,6.10596142578125,0.059992045164108276,4.510891437530518,6.257030487060547
1771038408098929700,6.1249296875,1.4556509256362915,4.926261901855469,5.471711158752441
1771038408117898200,6.143898193359375,1.195778489112854,4.08115291595459,3.529489517211914
1771038408136866600,6.162866455078125,-0.3649146556854248,2.9227311611175537,1.7414226531982422
1771038408155835000,6.1818349609375,-1.3236658573150635,1.9164857864379883,0.19498634338378906
1771038408174803500,6.200803466796875,-2.4019691944122314,0.7927896976470947,-1.8006911277770996
1771038408193771800,6.219771728515625,-2.673872232437134,-0.24669408798217773,-3.0679240226745605
1771038408212740400,6.238740234375,-2.7965023517608643,-1.0240631103515625,-3.2473697662353516
1771038408231708700,6.257708740234375,-2.282944679260254,-1.4957331418991089,-2.9546642303466797
1771038408250677200,6.27667724609375,-1.2281298637390137,-1.1370441913604736,-2.250454902648926
1771038408269645600,6.2956455078125,-0.7334510087966919,-0.8874115943908691,-1.4824566841125488
1771038408288614100,6.3146142578125,-1.330483078956604,-0.370790958404541,-0.8731250762939453
1771038408307582500,6.33358251953125,-1.8513686656951904,-0.4879293441772461,-0.419464111328125
1771038408326551000,6.352551025390625,0.14401960372924805,-1.1721982955932617,-1.014981746673584
1771038408345519400,6.371519287109375,1.420116901397705,-2.121405601501465,-0.6462125778198242
1771038408364487700,6.39048779296875,2.3039469718933105,-3.2121031284332275,0.07387065887451172
1771038408383456300,6.409456298828125,3.618659734725952,-4.2840352058410645,-1.7676067352294922
1771038408402424600,6.428424560546875,4.21715784072876,-4.068957805633545,-2.859102725982666
1771038408421393200,6.44739306640625,3.207808017730713,-3.984818458557129,-2.2992613315582275
1771038408440361500,6.466361572265625,2.2107791900634766,-4.019800662994385,-3.017033100128174
1771038408459330000,6.485330078125,-0.6628785729408264,-3.541626453399658,-3.734036445617676
1771038408478298400,6.50429833984375,-5.309317111968994,-1.0617733001708984,-1.7459818124771118
1771038408497266700,6.5232666015625,-9.803476333618164,1.7382917404174805,1.3114361763000488
1771038408516235300,6.5422353515625,-13.851224899291992,4.0926008224487305,3.613839626312256
1771038408535203600,6.56120361328125,-14.910239219665527,4.862851142883301,3.571694850921631
1771038408554172200,6.580172119140625,-13.537944793701172,5.217392921447754,3.1032989025115967
1771038408573140500,6.599140380859375,-10.530721664428711,4.707723617553711,2.504957437515259
1771038408592109000,6.618109130859375,-7.787214279174805,3.802750587463379,1.4099876880645752
1771038408611077400,6.637077392578125,-4.559834003448486,2.2766647338867188,0.29683399200439453
1771038408630045700,6.656045654296875,-1.4595258235931396,-0.31766700744628906,0.2710151672363281
1771038408649014300,6.67501416015625,-1.2427054643630981,-2.281497001647949,0.9114298820495605
1771038408667982600,6.693982666015625,-1.9756152629852295,-3.4686450958251953,0.025072097778320312
1771038408686951200,6.712951171875,-0.04267072677612305,-5.4539794921875,-0.4211392402648926
1771038408705919500,6.73191943359375,1.5360689163208008,-6.9302825927734375,-1.1443734169006348
1771038408724888000,6.75088818359375,1.7792388200759888,-7.578865051269531,-1.5176231861114502
1771038408743856400,6.7698564453125,0.5838855504989624,-8.421585083007812,-3.283799171447754
1771038408762825000,6.788824951171875,0.17480707168579102,-8.73698902130127,-3.783440351486206
1771038408781793300,6.807793212890625,0.18077468872070312,-9.459928512573242,-3.330514430999756
1771038408800761600,6.82676171875,-0.5553243160247803,-9.356178283691406,-4.399803638458252
1771038408819730200,6.845730224609375,-1.6020710468292236,-9.482521057128906,-5.508103847503662
1771038408838698500,6.864698486328125,-1.2257404327392578,-9.144720077514648,-6.843937397003174
1771038408857666800,6.883666748046875,0.023627758026123047,-8.624765396118164,-7.243999481201172
1771038408876635400,6.902635498046875,2.0590529441833496,-7.256417274475098,-5.76027250289917
1771038408895603700,6.921603759765625,2.982853412628174,-5.402903079986572,-3.0617570877075195
1771038408914572300,6.940572265625,4.330182075500488,-5.064207553863525,-2.431429386138916
1771038408933540600,6.95954052734375,4.239819526672363,-4.236500263214111,-4.442653656005859
1771038408952509000,6.978509033203125,4.3781256675720215,-3.249436378479004,-4.278054237365723
1771038408971477500,6.9974775390625,3.4515552520751953,-2.552262306213379,-2.521313190460205
1771038408990445800,7.01644580078125,3.1917686462402344,-2.515030860900879,-1.4314370155334473
1771038409009414100,7.0354140625,5.146860122680664,-2.34251070022583,-0.5310555696487427
1771038409028382700,7.0543828125,10.292160034179688,-1.1098277568817139,0.4647945165634155
1771038409047351000,7.07335107421875,12.544158935546875,0.7755333185195923,1.0534099340438843
1771038409066319600,7.092319580078125,12.126128196716309,1.9736829996109009,0.3592565059661865
1771038409085288000,7.111287841796875,9.894792556762695,1.5915478467941284,-0.4386645257472992
1771038409104256300,7.13025634765625,8.809809684753418,1.7672618627548218,0.0627278983592987
1771038409123224800,7.149224853515625,7.520622253417969,1.6273832321166992,0.3622334599494934
1771038409142193200,7.168193115234375,6.316479682922363,1.3104135990142822,0.6092262268066406
1771038409161161700,7.18716162109375,4.966499328613281,0.8438574075698853,0.6530402898788452
1771038409180130000,7.206130126953125,2.964628219604492,1.5309975147247314,1.6380207538604736
1771038409199098400,7.225098388671875,1.7123298645019531,1.38807213306427,1.8451237678527832
1771038409218066700,7.244066650390625,1.0361528396606445,1.320106863975525,1.8930339813232422
1771038409237035300,7.26303515625,0.592564582824707,0.8770666122436523,1.854963779449463
1771038409256003600,7.282003662109375,0.7907323837280273,-0.39583754539489746,0.17145788669586182
1771038409274972000,7.300971923828125,1.6743402481079102,-1.0246063470840454,-1.0924099683761597
1771038409293940500,7.3199404296875,2.8641796112060547,-1.5560977458953857,-2.123106002807617
1771038409312908800,7.33890869140625,2.7066450119018555,-2.4312996864318848,-2.751260995864868
1771038409331877400,7.35787744140625,1.8240623474121094,-3.751953125,-4.077933311462402
1771038409350845700,7.376845703125,1.444737434387207,-4.795773506164551,-5.270226955413818
1771038409369814000,7.39581396484375,0.4773225784301758,-4.618389129638672,-5.2214579582214355
1771038409388782600,7.414782470703125,1.9988903999328613,-4.378084659576416,-6.590451240539551
1771038409407751000,7.4337509765625,2.759962558746338,-3.7955403327941895,-6.713953971862793
1771038409426719200,7.45271923828125,1.2982478141784668,-3.2711338996887207,-5.601507663726807
1771038409445687800,7.471687744140625,-0.17853021621704102,-2.0885276794433594,-5.109159469604492
1771038409464656100,7.49065625,-2.5770785808563232,-0.9515113830566406,-4.429126739501953
1771038409483624400,7.50962451171875,-3.968386650085449,0.012968063354492188,-3.8217430114746094
1771038409502592800,7.5285927734375,-4.857751846313477,1.1379289627075195,-4.1120524406433105
1771038409521561300,7.547561279296875,-6.425592422485352,1.9302129745483398,-3.9774632453918457
1771038409540529700,7.56652978515625,-6.457163333892822,2.7736806869506836,-3.106882095336914
1771038409559498000,7.585498046875,-4.371338367462158,2.664247512817383,-2.5786969661712646
1771038409578466300,7.60446630859375,-3.717566967010498,1.7320175170898438,-1.9346240758895874
1771038409597435000,7.623434814453125,-4.099964141845703,1.1893844604492188,-0.762291431427002
1771038409616403200,7.6424033203125,-4.493100166320801,-0.10468482971191406,-0.6816411018371582
1771038409635371500,7.66137158203125,-4.167572021484375,-1.423288345336914,-1.166393756866455
1771038409654340000,7.680340087890625,-3.7074179649353027,-2.6586813926696777,-1.012864351272583
1771038409673308400,7.699308349609375,-3.388295888900757,-3.4667296409606934,-0.4680211544036865
1771038409692276700,7.71827685546875,-3.6384143829345703,-4.142871379852295,0.32927191257476807
1771038409711245000,7.7372451171875,-4.109233856201172,-4.338470935821533,0.7677161693572998
1771038409730213600,7.756213623046875,-3.7608261108398438,-4.392700672149658,0.9193134307861328
1771038409749182000,7.775181884765625,-2.973322868347168,-4.5435662269592285,1.2726935148239136
1771038409768150300,7.794150390625,-2.278209924697876,-4.7636399269104,1.5822017192840576
1771038409787118600,7.81311865234375,-1.5023657083511353,-4.911397933959961,1.711645483970642
1771038409806087200,7.832087158203125,-0.7391200065612793,-4.572723865509033,0.9281946420669556
1771038409825055500,7.851055419921875,-0.9830419421195984,-4.624068260192871,-0.416856050491333
1771038409844023800,7.87002392578125,-1.0910521745681763,-4.508154392242432,-0.7751443386077881
1771038409862992100,7.8889921875,-1.9556934833526611,-3.6237053871154785,0.16252613067626953
1771038409881960700,7.907960693359375,-2.347978115081787,-2.702083110809326,0.46509814262390137
1771038409900929000,7.926928955078125,-2.85841703414917,-1.9147439002990723,0.6758435964584351
1771038409919897300,7.9458974609375,-2.611426591873169,-0.9030742645263672,0.7401167154312134
1771038409938865700,7.96486572265625,-2.0822224617004395,0.5321083068847656,-0.2562124729156494
1771038409957834000,7.983833984375,-0.5153050422668457,1.5304555892944336,-1.7199488878250122
1771038409976802600,8.002802490234375,-0.3891763687133789,1.9140863418579102,-2.542558193206787
1771038409995771000,8.02177099609375,-0.6746673583984375,2.3050804138183594,-1.858254313468933
1771038410014739200,8.0407392578125,0.5349092483520508,2.4898667335510254,-1.9984192848205566
1771038410033707500,8.05970751953125,2.745286464691162,2.2559313774108887,-2.076362133026123
1771038410052675800,8.07867578125,3.5996294021606445,2.71901273727417,-0.8876124620437622
1771038410071644200,8.09764404296875,2.4304637908935547,3.188420295715332,1.5175148248672485
1771038410090612700,8.11661279296875,1.324091911315918,2.7816028594970703,3.3503971099853516
1771038410109581000,8.1355810546875,-0.5023274421691895,2.2595248222351074,3.038144111633301
1771038410128549400,8.15454931640625,-2.550276756286621,1.636012077331543,1.9314595460891724
1771038410147517700,8.173517578125,-2.6038331985473633,1.0576486587524414,-0.004180192947387695
1771038410166486000,8.192486083984376,-1.9964137077331543,-0.08957910537719727,-1.0712254047393799
1771038410185454600,8.21145458984375,-1.440206527709961,-0.45809268951416016,-0.9144518375396729
1771038410204423000,8.2304228515625,-0.7422280311584473,-0.4371018409729004,-0.44182538986206055
1771038410223391200,8.24939111328125,-0.8518843650817871,-0.9998447895050049,-0.9969882965087891
1771038410242359600,8.268359619140625,-0.052608489990234375,-2.6518023014068604,-1.7489750385284424
1771038410261328000,8.287327880859374,0.4676847457885742,-3.356055736541748,-2.087184429168701
1771038410280296200,8.306296142578125,1.0827531814575195,-3.7420315742492676,-1.1140573024749756
1771038410299264500,8.325264404296876,0.10803031921386719,-3.773700714111328,0.8146923780441284
1771038410318232800,8.34423291015625,-0.4327878952026367,-4.1247758865356445,0.6466555595397949
1771038410337201200,8.363201171875,-0.9139995574951172,-4.559993743896484,0.6336958408355713
1771038410356169500,8.38216943359375,-1.9579591751098633,-4.81880521774292,0.9330422878265381
1771038410375137800,8.4011376953125,-3.710312843322754,-4.559985160827637,1.4002759456634521
1771038410394106400,8.4201064453125,-4.575480937957764,-4.560174942016602,1.8098723888397217
1771038410413074700,8.43907470703125,-4.814670085906982,-4.816950798034668,1.6830592155456543
1771038410432043000,8.45804296875,-4.388713836669922,-4.545892715454102,0.8893954753875732
1771038410451011300,8.47701123046875,-1.558910846710205,-3.796304941177368,-1.0938448905944824
1771038410469979600,8.495979736328126,2.1229658126831055,-3.286698818206787,-2.2261972427368164
1771038410488948000,8.514947998046875,6.015201568603516,-3.3307881355285645,-1.9933228492736816
1771038410507916300,8.533916259765626,8.222579002380371,-2.254260540008545,-0.8740234375
1771038410526884600,8.552884521484375,8.310107231140137,-0.9153594970703125,-0.10070657730102539
1771038410545853000,8.57185302734375,7.686718940734863,-1.2484043836593628,0.8378715515136719
1771038410564821200,8.5908212890625,6.181419849395752,-2.167900323867798,2.553737163543701
1771038410583789600,8.60978955078125,3.4031386375427246,-2.2632718086242676,3.1365673542022705
1771038410602758000,8.6287578125,2.335812568664551,-2.44270658493042,0.8995795249938965
1771038410621726200,8.647726318359375,2.1037254333496094,-2.4455811977386475,-2.316216468811035
1771038410640694500,8.666694580078126,3.2868757247924805,-2.146277904510498,-4.390540599822998
1771038410659662800,8.685662841796875,4.203665733337402,-1.4151041507720947,-4.1026458740234375
1771038410678631200,8.704631103515625,3.696197509765625,-0.6756124496459961,-3.269652843475342
1771038410697599500,8.723599609375,2.7631874084472656,0.1390056610107422,-2.4762072563171387
1771038410716567800,8.74256787109375,2.0419774055480957,0.6428027153015137,-2.014869213104248
1771038410735536000,8.7615361328125,1.8789243698120117,1.3337488174438477,-1.4861440658569336
1771038410754504400,8.78050439453125,1.4183220863342285,1.9773447513580322,-0.9093780517578125
1771038410773472800,8.79947265625,1.317457675933838,2.1395297050476074,-0.5871238708496094
1771038410792441000,8.818441162109375,1.3871655464172363,2.733194351196289,-0.38514232635498047
1771038410811409400,8.837409423828126,1.9358258247375488,3.319404125213623,-0.18327808380126953
1771038410830377700,8.856377685546875,2.225008010864258,4.011040687561035,0.18765830993652344
1771038410849346000,8.875345947265625,2.6191272735595703,4.8194475173950195,0.5906391143798828
1771038410868314400,8.894314453125,4.010052680969238,5.024069786071777,0.599125862121582
1771038410887282400,8.913282470703125,5.7984113693237305,4.99507999420166,0.3221139907836914
1771038410906250800,8.932250732421876,7.582605838775635,5.5209245681762695,0.1823101043701172
1771038410925219000,8.951218994140625,9.018628120422363,5.766639709472656,-0.29430532455444336
1771038410944187400,8.9701875,11.968680381774902,5.330244064331055,-1.4732003211975098
1771038410963155700,8.98915576171875,14.193910598754883,5.857769012451172,-1.4510440826416016
1771038410982124000,9.0081240234375,15.311910629272461,5.906213760375977,-1.7367467880249023
1771038411001092400,9.02709228515625,15.02397632598877,3.1298184394836426,-2.9768261909484863
1771038411020060700,9.046060791015625,13.41640853881836,-1.7655553817749023,-5.519255638122559
1771038411039029000,9.065029052734374,12.435205459594727,-6.117391109466553,-8.3335599899292
1771038411057997000,9.0839970703125,10.73076057434082,-8.583624839782715,-9.702540397644043
1771038411076965400,9.10296533203125,8.030448913574219,-10.118565559387207,-10.802167892456055
1771038411095933700,9.12193359375,4.4509172439575195,-11.802793502807617,-11.639619827270508
1771038411114902000,9.140902099609375,1.824967384338379,-12.934844017028809,-11.667435646057129
1771038411133870300,9.159870361328124,0.24367904663085938,-11.287769317626953,-11.16830062866211
1771038411152838700,9.178838623046875,-0.011052131652832031,-9.618892669677734,-9.749856948852539
1771038411171807000,9.197806884765624,-0.14544296264648438,-7.267585754394531,-7.606297016143799
1771038411190775000,9.216775146484375,-0.08035755157470703,-5.201032638549805,-6.297499656677246
1771038411209743400,9.235743408203126,0.2812948226928711,-3.9884626865386963,-4.873071670532227
1771038411228711700,9.254711669921875,-0.29381752014160156,-4.24058723449707,-2.8369312286376953
1771038411247680000,9.273679931640626,-1.6083359718322754,-5.425981521606445,-1.124180793762207
1771038411266648300,9.2926484375,-2.261931896209717,-6.791506290435791,-0.3387017250061035
1771038411285616400,9.311616455078125,-2.483131170272827,-8.066871643066406,0.03143167495727539
1771038411304584700,9.330584716796874,-2.844834804534912,-8.714024543762207,0.24957656860351562
1771038411323553000,9.349552978515625,-3.4537925720214844,-9.49676513671875,-0.5440139770507812
1771038411342521300,9.368521240234376,-3.4258553981781006,-10.368241310119629,-2.3251874446868896
1771038411361489400,9.387489501953125,-3.6446027755737305,-10.182967185974121,-1.9697437286376953
1771038411380457700,9.406457763671876,-5.042853355407715,-8.42553997039795,-1.9644818305969238
1771038411399426000,9.425426025390625,-4.461658954620361,-5.005646705627441,-2.695235252380371
1771038411418394400,9.444394287109375,-1.120572566986084,-1.7971043586730957,-2.3622474670410156
1771038411437362400,9.463362548828124,-0.9781749248504639,-2.4123687744140625,-3.628324031829834
1771038411456330800,9.482330810546875,-2.2028613090515137,-5.99083137512207,-1.864372968673706
1771038411475299000,9.501299072265626,-4.751670837402344,-5.878168106079102,1.1547601222991943
1771038411494267400,9.520267333984375,-7.540042877197266,-7.408686637878418,1.492663025856018
1771038411513235500,9.5392353515625,-8.083562850952148,-7.927861213684082,-1.4691417217254639
1771038411532203800,9.558203857421875,-6.9924163818359375,-8.035670280456543,-5.661312103271484
1771038411551172000,9.577172119140625,-6.347207069396973,-8.930328369140625,-8.849452018737793
1771038411570140400,9.596140380859374,-5.453318119049072,-9.756430625915527,-10.031720161437988
1771038411589108500,9.6151083984375,-3.1832313537597656,-9.899334907531738,-9.366405487060547
1771038411608076800,9.634076904296874,-1.111328125,-9.757594108581543,-7.861567497253418
1771038411627045000,9.653045166015625,0.7475399971008301,-9.166021347045898,-5.901766777038574
1771038411646013200,9.67201318359375,2.6826372146606445,-7.706106662750244,-3.739593505859375
1771038411664981500,9.6909814453125,5.665086269378662,-5.636211395263672,-2.4053471088409424
1771038411683949800,9.70994970703125,8.778586387634277,-2.7839560508728027,-1.6022576093673706
1771038411702918000,9.72891796875,10.378210067749023,-0.1006474494934082,1.9187507629394531
1771038411721886200,9.74788623046875,8.195821762084961,0.5327053070068359,5.681351661682129
1771038411740854500,9.7668544921875,4.517613887786865,-3.240741729736328,5.8250732421875
1771038411759822600,9.785822509765625,1.554171085357666,-6.878058910369873,3.3849315643310547
1771038411778791000,9.804791015625,1.8393330574035645,-8.368051528930664,-2.1763267517089844
1771038411797759000,9.823759033203125,2.5151095390319824,-7.173316955566406,-4.468520641326904
1771038411816727300,9.842727294921875,0.8731412887573242,-5.4165802001953125,-3.9879512786865234
1771038411835695600,9.861695556640624,1.758054256439209,-5.270208358764648,-2.22902250289917
1771038411854663700,9.88066357421875,2.108208656311035,-4.134062767028809,0.08840703964233398
1771038411873632000,9.899632080078124,2.196603775024414,-3.7780637741088867,1.846397876739502
1771038411892600300,9.918600341796875,1.4881839752197266,-3.5227012634277344,3.5470166206359863
1771038411911568400,9.937568359375,1.5111231803894043,-3.512442111968994,3.749481201171875
1771038411930536700,9.95653662109375,3.3036484718322754,-4.046916961669922,2.2564826011657715
1771038411949504800,9.9755048828125,4.988320827484131,-3.7622714042663574,2.008852005004883
1771038411968473000,9.99447314453125,6.3689866065979,-3.5538687705993652,2.9399473667144775
1771038411987441400,10.01344140625,8.669686317443848,-5.341646194458008,2.0888326168060303
1771038412006409500,10.032409423828126,11.149076461791992,-6.857268810272217,-0.010147571563720703
1771038412025377500,10.05137744140625,14.077585220336914,-6.923408508300781,-4.31598424911499
1771038412044345900,10.070345947265626,19.083837509155273,-4.56743049621582,-10.323946952819824
1771038412063314200,10.089314208984375,20.72614288330078,-3.069126844406128,-14.013690948486328
1771038412082282200,10.1082822265625,13.015030860900879,-3.270554542541504,-13.641845703125
1771038412101250600,10.12725048828125,4.086413383483887,-3.7023911476135254,-12.347885131835938
1771038412120218600,10.146218505859375,-1.4964866638183594,-2.7903077602386475,-11.589818954467773
1771038412139187000,10.16518701171875,-3.928621768951416,-1.1150181293487549,-10.764029502868652
1771038412158155300,10.1841552734375,-3.2525548934936523,0.046507060527801514,-9.141400337219238
1771038412177123300,10.203123291015626,-3.245431423187256,0.7969398498535156,-7.893559455871582
1771038412196091600,10.222091552734375,-3.2010607719421387,1.505605697631836,-7.666144371032715
1771038412215059700,10.241059814453125,-2.994781494140625,1.5404807329177856,-8.105541229248047
1771038412234028000,10.260028076171874,-2.649204730987549,1.4007357358932495,-8.637863159179688
1771038412252996000,10.27899609375,-2.5543551445007324,-0.1471233367919922,-9.256209373474121
1771038412271964400,10.29796435546875,-3.243931770324707,-0.3853037357330322,-8.659361839294434
1771038412290932500,10.316932373046875,-2.8001136779785156,-0.5462021827697754,-7.9492669105529785
1771038412309900800,10.33590087890625,-2.155144691467285,-1.1620490550994873,-6.383500576019287
1771038412328868900,10.354868896484374,-2.7243027687072754,-1.4364566802978516,-3.9947948455810547
1771038412347837200,10.373837158203125,-3.9666695594787598,-0.9034218788146973,-1.2057632207870483
1771038412366805200,10.39280517578125,-4.436148166656494,-0.2950406074523926,0.4726470112800598
1771038412385773300,10.411773193359375,-5.0744476318359375,0.12195396423339844,1.5416818857192993
1771038412404741600,10.43074169921875,-5.529967308044434,0.0877532958984375,2.3629260063171387
1771038412423710000,10.4497099609375,-6.111268997192383,-0.7268152236938477,1.5409258604049683
1771038412442678000,10.468677978515625,-6.135136604309082,-1.7713351249694824,-0.4025430679321289
1771038412461646000,10.48764599609375,-6.2395806312561035,-2.7539169788360596,-1.065054178237915
1771038412480614400,10.506614501953125,-6.246547698974609,-2.966374158859253,-0.005299568176269531
1771038412499582500,10.52558251953125,-5.265154838562012,-3.2508246898651123,0.9831045866012573
1771038412518550800,10.54455078125,-3.720423698425293,-3.1006276607513428,2.3417985439300537
1771038412537518800,10.563518798828126,-3.059053421020508,-3.0671727657318115,3.5968117713928223
1771038412556487000,10.58248681640625,-1.8529157638549805,-2.6752443313598633,4.080564022064209
1771038412575455200,10.601455322265625,0.9570116996765137,-2.1520724296569824,4.1500983238220215
1771038412594423300,10.62042333984375,2.622258186340332,-2.098055601119995,4.850008010864258
1771038412613391600,10.6393916015625,1.9739723205566406,-2.5926947593688965,5.64084529876709
1771038412632359700,10.658359619140626,1.88718843460083,-3.7857255935668945,5.406716346740723
1771038412651327700,10.67732763671875,0.762535572052002,-5.018866539001465,5.283298492431641
1771038412670296000,10.696296142578126,-1.1593232154846191,-5.283664703369141,5.0607476234436035
1771038412689264000,10.71526416015625,-0.6227531433105469,-4.340850830078125,3.3747801780700684
1771038412708232400,10.734232421875,1.4944477081298828,-3.4448084831237793,2.369109869003296
1771038412727200500,10.753200439453124,2.726794719696045,-2.7335243225097656,1.9469289779663086
1771038412746168600,10.77216845703125,2.7557101249694824,-2.497403144836426,2.1697998046875
1771038412765137000,10.791136962890626,1.3943939208984375,-2.142768383026123,1.42167329788208
1771038412784105000,10.81010498046875,1.4482789039611816,-2.2786953449249268,-0.49933481216430664
1771038412803073000,10.829072998046875,2.3751139640808105,-2.2795088291168213,-0.12997817993164062
1771038412822041300,10.848041259765624,3.193203926086426,-0.8145730495452881,1.776244878768921
1771038412841009400,10.867009521484375,5.972548484802246,2.0709943771362305,2.3650403022766113
1771038412859977500,10.8859775390625,7.516270637512207,3.3927958011627197,-0.8830652236938477
1771038412878945800,10.90494580078125,8.2730712890625,3.644749879837036,-4.269040584564209
1771038412897913900,10.923913818359376,7.758110046386719,3.2639033794403076,-5.813382625579834
1771038412916882000,10.9428818359375,5.283864974975586,2.1754026412963867,-4.035293102264404
1771038412935850200,10.961850341796875,3.001880645751953,1.5521730184555054,-1.9902143478393555
1771038412954818300,10.980818359375,1.7148380279541016,1.1922401189804077,-0.9542207717895508
1771038412973786400,10.999786376953125,0.6130447387695312,1.2031211853027344,-0.719785213470459
1771038412992754700,11.018754638671876,-0.5252022743225098,0.9218311309814453,-0.24083614349365234
1771038413011722800,11.03772265625,-2.8396267890930176,0.552233099937439,1.5158395767211914
1771038413030690800,11.05669091796875,-5.4356560707092285,-0.6126775741577148,2.973329544067383
1771038413049659000,11.075658935546874,-7.6492600440979,-1.5017592906951904,3.7784812450408936
1771038413068627200,11.094627197265625,-8.723173141479492,-1.876957893371582,3.9423654079437256
1771038413087595300,11.11359521484375,-7.8795881271362305,-2.0342085361480713,3.931777238845825
1771038413106563300,11.132563232421875,-5.803695201873779,-1.0773344039916992,3.674168825149536
1771038413125531600,11.15153173828125,-2.03076171875,-0.8817277550697327,2.0122885704040527
1771038413144499700,11.170499755859375,2.7935261726379395,-0.8228579759597778,0.16568279266357422
1771038413163467800,11.1894677734375,7.9836602210998535,-1.3148351907730103,-1.5485920906066895
1771038413182435800,11.208435791015624,12.566296577453613,-0.5350198745727539,-2.2229743003845215
1771038413201404200,11.227404052734375,13.426555633544922,0.24865353107452393,-2.4628677368164062
1771038413220372200,11.246372314453126,10.413925170898438,-0.8012984991073608,-1.5115818977355957
1771038413239340300,11.26534033203125,5.247895240783691,-2.81584095954895,-1.1604347229003906
1771038413258308400,11.284308349609375,-0.2655911445617676,-4.270805835723877,-1.285141944885254
1771038413277276700,11.303276611328124,-3.8736703395843506,-3.826683521270752,-2.366917133331299
1771038413296244700,11.32224462890625,-5.913942813873291,-1.9798411130905151,-2.633521556854248
1771038413315212800,11.341212890625,-5.292431354522705,-0.10327935218811035,-2.5505833625793457
1771038413334180900,11.360180908203125,-2.7253684997558594,0.9972964525222778,-2.979705810546875
1771038413353149000,11.37914892578125,0.2877011299133301,1.3963351249694824,-3.691157341003418
1771038413372117200,11.3981171875,3.026926040649414,0.6273825764656067,-4.546700477600098
1771038413391085300,11.417085205078125,5.584842681884766,-1.8773530721664429,-7.833983898162842
1771038413410053400,11.436053466796874,7.481296062469482,-2.9209935665130615,-10.348115921020508
1771038413429021400,11.455021484375,7.885507106781006,-4.2378740310668945,-9.258039474487305
1771038413447989500,11.473989501953126,5.4235005378723145,-4.875556468963623,-5.267460346221924
1771038413466957600,11.49295751953125,4.127117156982422,-4.355979919433594,-2.7119736671447754
1771038413485926000,11.51192578125,1.8915810585021973,-3.7088613510131836,-1.06248140335083
1771038413504894000,11.53089404296875,0.41536760330200195,-2.9695491790771484,0.30657529830932617
1771038413523862000,11.549862060546875,-2.4039690494537354,-2.127436637878418,2.16330623626709
1771038413542830000,11.568830078125,-4.897893905639648,-1.2275116443634033,3.0622005462646484
1771038413561798100,11.587798095703125,-5.1877570152282715,-0.10263776779174805,2.3092451095581055
1771038413580766200,11.60676611328125,-4.120857238769531,0.14683032035827637,0.4104442596435547
1771038413599734300,11.625734375,-3.730297565460205,-0.3695559501647949,-0.1116018295288086
1771038413618702300,11.644702392578125,-5.0786051750183105,-1.1356077194213867,1.0235075950622559
1771038413637670700,11.663670654296874,-6.303380012512207,-1.5995912551879883,2.970065116882324
1771038413656638700,11.682638671875,-7.364878177642822,-1.5228321552276611,4.448967933654785
1771038413675606800,11.701606689453126,-8.619148254394531,-1.64833402633667,4.344611167907715
1771038413694574800,11.720574951171875,-9.008993148803711,-1.7544324398040771,4.372133255004883
1771038413713543000,11.73954296875,-7.7529497146606445,-1.9269425868988037,3.8991403579711914
1771038413732511000,11.758510986328124,-6.008312702178955,-1.817350149154663,3.785499334335327
1771038413751479000,11.77747900390625,-4.63602352142334,-1.1565098762512207,3.566836357116699
1771038413770447000,11.796447021484376,-3.372612953186035,-0.8018686771392822,3.042457342147827
1771038413789415200,11.815415283203125,-3.7089643478393555,-0.748018741607666,3.4585211277008057
1771038413808383200,11.83438330078125,-4.071244239807129,-0.6170058250427246,2.9492650032043457
1771038413827351300,11.853351318359374,-4.102574348449707,-0.9004497528076172,2.8572168350219727
1771038413846319400,11.8723193359375,-3.627101421356201,-1.6977765560150146,2.3847103118896484
1771038413865287400,11.891287353515626,-2.882694721221924,-1.973997712135315,1.2277982234954834
1771038413884255500,11.91025537109375,-1.8123202323913574,-2.1772093772888184,-1.5051651000976562
1771038413903223800,11.929223876953126,0.1709270477294922,-3.0833442211151123,-1.994234561920166
1771038413922192000,11.94819189453125,0.659822940826416,-3.2887258529663086,0.2777857780456543
1771038413941159700,11.96715966796875,0.9814844131469727,-2.2379775047302246,1.8628649711608887
1771038413960127700,11.986127685546874,3.729583740234375,-2.5596938133239746,0.04094505310058594
1771038413979095800,12.005095703125,6.388294219970703,-2.163784980773926,-0.34166574478149414
1771038413998064000,12.024064208984376,7.20477294921875,-1.6694581508636475,0.8585386276245117
1771038414017032200,12.0430322265625,6.249427795410156,-1.7937477827072144,1.6390531063079834
1771038414036000000,12.062,4.1514739990234375,-2.4229376316070557,2.0015861988067627
1771038414054968000,12.080968017578124,2.394167900085449,-3.1037075519561768,1.4045770168304443
1771038414073936100,12.09993603515625,2.0039892196655273,-3.0168046951293945,0.47768735885620117
1771038414092904200,12.118904296875,2.4265098571777344,-2.1851603984832764,-0.21723699569702148
1771038414111872300,12.137872314453125,2.61142635345459,-0.5660347938537598,-0.320859432220459
1771038414130840300,12.15684033203125,2.729806423187256,0.5180103778839111,0.02603912353515625
1771038414149808400,12.175808349609374,1.8936619758605957,1.2091237306594849,0.15024614334106445
1771038414168776400,12.1947763671875,0.8123106956481934,1.8710213899612427,0.49330997467041016
1771038414187744500,12.21374462890625,-0.18180036544799805,2.5537753105163574,0.7575485706329346
1771038414206712600,12.232712646484375,-0.16722726821899414,2.3114442825317383,0.754098653793335
1771038414225680600,12.2516806640625,-0.3360743522644043,2.334324836730957,1.0474138259887695
1771038414244648700,12.270648681640624,1.024240493774414,1.9855446815490723,1.0673625469207764
1771038414263616800,12.28961669921875,3.201597213745117,1.2916295528411865,0.45848751068115234
1771038414282584800,12.308584716796876,5.805842399597168,1.4088830947875977,0.8965470790863037
1771038414301552600,12.327552734375,7.854551315307617,3.009603261947632,2.8338351249694824
1771038414320520700,12.346520751953125,9.318046569824219,4.515991687774658,2.9781200885772705
1771038414339488800,12.36548876953125,10.225232124328613,5.151327133178711,2.2382376194000244
1771038414358456800,12.384456787109375,10.35480785369873,2.726161003112793,0.9980407953262329
1771038414377425000,12.4034248046875,9.407303810119629,-1.7258424758911133,-0.3494654893875122
1771038414396393000,12.42239306640625,9.425088882446289,-5.6030192375183105,-3.0350918769836426
1771038414415361000,12.441361083984376,10.1879243850708,-7.50684928894043,-5.322048187255859
1771038414434328800,12.460328857421874,9.12969970703125,-6.549313545227051,-5.74077033996582
1771038414462781000,12.488781005859375,6.991302490234375,-7.671366214752197,-6.188356876373291
1771038414481749000,12.5077490234375,6.378262519836426,-9.467068672180176,-6.421830177307129
1771038414500717000,12.526717041015624,3.611088752746582,-8.155044555664062,-6.393795013427734
1771038414519685000,12.54568505859375,1.5725908279418945,-5.925717353820801,-4.4535932540893555
1771038414538653200,12.564653076171876,1.5463638305664062,-4.719464302062988,-2.414299964904785
1771038414557621000,12.58362109375,1.0979576110839844,-2.842721939086914,-0.5567068457603455
1771038414576589000,12.602589111328125,0.48215675354003906,-2.408475875854492,-0.15905308723449707
1771038414595557000,12.62155712890625,-0.2859668731689453,-2.907090663909912,-1.5685579776763916
1771038414614525200,12.640525146484375,-2.915290355682373,-2.541145086288452,-1.9550033807754517
1771038414633493000,12.659492919921876,-4.696673393249512,-1.7489614486694336,-2.7773725986480713
1771038414652461000,12.6784609375,-5.427623748779297,-2.2008464336395264,-4.064303398132324
1771038414671429000,12.69742919921875,-7.120945930480957,-3.6553421020507812,-3.4086904525756836
1771038414690397200,12.716397216796874,-8.945045471191406,-4.220502853393555,-2.860116958618164
1771038414709365000,12.735364990234375,-8.67968463897705,-4.1181793212890625,-2.6576778888702393
1771038414728333000,12.7543330078125,-7.847590446472168,-3.0375382900238037,-2.236111640930176
1771038414747301000,12.773301025390625,-6.428214073181152,-1.9565813541412354,-3.22062611579895
1771038414766269200,12.792269287109375,-5.902431964874268,-1.4911530017852783,-3.805051565170288
1771038414785237000,12.811237060546874,-4.908249378204346,-1.4918104410171509,-3.4647011756896973
1771038414804205000,12.830205078125,-4.130959987640381,-1.0723304748535156,-2.270430326461792
1771038414823173000,12.849173095703126,-3.7953758239746094,-0.7582483291625977,-0.8442821502685547
1771038414842141200,12.86814111328125,-2.5616960525512695,-0.579108476638794,-0.15521621704101562
1771038414861109000,12.88710888671875,-2.3345165252685547,-1.2299058437347412,-1.7370872497558594
1771038414880077000,12.9060771484375,-1.3708086013793945,-2.3931946754455566,-3.127969264984131
1771038414899044900,12.925044921875,-1.9193115234375,-2.612098455429077,-1.9002892971038818
1771038414918013000,12.944012939453126,-0.5034976005554199,-1.59904146194458,0.10110235214233398
1771038414936981000,12.96298095703125,2.7678260803222656,-0.8105566501617432,1.2517776489257812
1771038414955949000,12.981948974609375,4.742770671844482,0.09864163398742676,2.486105442047119
1771038414974916900,13.000916748046874,5.621079444885254,0.7139708995819092,3.055616855621338
1771038414993885000,13.019885009765625,5.98653507232666,0.6458420753479004,3.363043785095215
1771038415012852700,13.038852783203126,2.276348114013672,1.2322351932525635,2.8822646141052246
1771038415031820800,13.05782080078125,-0.4251675605773926,0.7933340072631836,1.6418561935424805
1771038415050788900,13.076788818359375,0.6506667137145996,0.4740939140319824,0.2502474784851074
1771038415069756700,13.095756591796874,1.5114445686340332,1.104435682296753,-0.682924747467041
1771038415088724700,13.114724853515625,1.3254480361938477,1.5710077285766602,-0.13480806350708008
1771038415107692800,13.13369287109375,1.6507668495178223,0.5908992290496826,-0.39104318618774414
1771038415126660600,13.15266064453125,-0.42346668243408203,-0.31868648529052734,-1.5387420654296875
1771038415145628700,13.171628662109375,-2.3509602546691895,-1.0113537311553955,-2.0641555786132812
1771038415164596500,13.190596435546874,-3.7954485416412354,-0.8703510761260986,-1.698066234588623
1771038415183564500,13.209564453125,-2.1181864738464355,-0.671898365020752,-1.1477570533752441
1771038415202532400,13.228532470703126,-1.1763100624084473,-0.11785531044006348,-0.8828639984130859
1771038415221500400,13.24750048828125,-0.8674139976501465,-0.45588231086730957,-0.6277527809143066
1771038415240468500,13.266468505859375,-2.7490429878234863,-0.8399360179901123,-0.7185425758361816
1771038415259436300,13.285436279296874,-3.5010533332824707,-0.5421783924102783,-1.1536431312561035
1771038415278404400,13.304404296875,-4.390803337097168,-0.814361572265625,-1.8797430992126465
1771038415297372200,13.3233720703125,-5.407732009887695,-1.973593831062317,-2.554185628890991
1771038415316340200,13.34234033203125,-6.014293193817139,-2.1857404708862305,-2.3737828731536865
1771038415335308300,13.361308349609375,-4.037941932678223,-0.4653282165527344,-0.2794685363769531
1771038415354276000,13.380276123046874,-0.9210996627807617,1.7280185222625732,2.054932117462158
1771038415373244200,13.399244140625,1.7419037818908691,2.935774326324463,3.7206645011901855
1771038415392212000,13.4182119140625,1.2081809043884277,1.6104850769042969,3.261207103729248
1771038415411179800,13.4371796875,-1.528937816619873,0.8289957046508789,2.9208879470825195
1771038415430147800,13.45614794921875,-3.3124027252197266,0.49744510650634766,2.8178930282592773
1771038415449115600,13.47511572265625,-2.5083365440368652,0.9675886631011963,3.6613595485687256
1771038415468083700,13.494083740234375,1.369462013244629,1.271604061126709,3.46120548248291
1771038415487051800,13.5130517578125,5.676170349121094,2.2919652462005615,4.411643981933594
1771038415506019600,13.53201953125,5.974822998046875,1.807147741317749,4.175870418548584
1771038415524987600,13.550987548828125,4.690354347229004,0.0905609130859375,3.4622316360473633
1771038415543955500,13.56995556640625,3.9960203170776367,0.4697303771972656,2.405773639678955
1771038415562923300,13.58892333984375,6.6747331619262695,1.752605676651001,1.5109543800354004
1771038415581891300,13.607891357421876,7.018074989318848,1.2628507614135742,0.42815589904785156
1771038415600859100,13.626859130859375,6.0083513259887695,1.0420548915863037,-0.06369495391845703
1771038415619827200,13.6458271484375,5.871916770935059,1.500427007675171,-0.05910968780517578
1771038415638795000,13.664794921875,5.384490966796875,2.325098752975464,1.073608160018921
1771038415657763000,13.68376318359375,3.4188060760498047,2.3027451038360596,1.4806084632873535
1771038415676731000,13.70273095703125,2.2623376846313477,2.1096088886260986,1.023106575012207
1771038415695699000,13.721698974609374,1.3526840209960938,1.6540241241455078,0.10825109481811523
1771038415714666800,13.740666748046875,1.5642776489257812,1.3435776233673096,-0.4540553092956543
1771038415733634600,13.759634521484376,1.1680030822753906,0.5826559066772461,-1.1656370162963867
1771038415752602600,13.7786025390625,0.20136070251464844,0.5484409332275391,-1.8705854415893555
1771038415771570400,13.7975703125,-0.2150130271911621,0.517491340637207,-2.209817886352539
1771038415790538500,13.81653857421875,0.027312278747558594,0.013606071472167969,-2.681748628616333
1771038415809506300,13.83550634765625,1.2742490768432617,-0.6067409515380859,-2.8146138191223145
1771038415828474400,13.854474365234376,1.405062198638916,-1.120903491973877,-2.834094762802124
1771038415847442200,13.873442138671875,1.1898107528686523,-1.5598580837249756,-3.1331610679626465
1771038415866410000,13.892409912109375,1.0097503662109375,-1.4300572872161865,-3.151033401489258
1771038415885378000,13.9113779296875,1.364461898803711,-1.205012321472168,-3.1094913482666016
1771038415904345900,13.930345947265625,1.2892327308654785,-1.678987979888916,-2.9593663215637207
1771038415923313700,13.949313720703126,0.7186169624328613,-2.054990291595459,-2.7338809967041016
1771038415942281700,13.96828173828125,0.9230079650878906,-1.7231287956237793,-2.7706198692321777
1771038415961249500,13.98724951171875,0.9599370956420898,-0.8716707229614258,-2.081575393676758
1771038415980217300,14.00621728515625,1.2298593521118164,-0.519752025604248,-1.546199083328247
1771038415999185400,14.025185302734375,1.546879768371582,-0.2773127555847168,-1.272623062133789
1771038416018153200,14.0441533203125,2.1029443740844727,0.08514976501464844,-0.6788961887359619
1771038416037121000,14.06312109375,2.357461452484131,0.966547966003418,-0.36582422256469727
1771038416056089000,14.082089111328125,2.4512782096862793,1.9194297790527344,0.056551456451416016
1771038416075057000,14.101056884765624,2.8856048583984375,1.5038633346557617,-0.0073506832122802734
1771038416094024700,14.120024658203125,3.407031297683716,0.9323406219482422,-0.24559545516967773
1771038416112992800,14.13899267578125,3.2018985748291016,0.8211383819580078,0.3457906246185303
1771038416131960600,14.157960693359374,1.4856200218200684,0.9859561920166016,1.5074875354766846
1771038416150928400,14.176928466796875,0.22582125663757324,0.6510353088378906,2.042738676071167
1771038416169896200,14.195896240234376,0.20069003105163574,-0.05669116973876953,1.8078408241271973
1771038416188864300,14.2148642578125,0.8857283592224121,-1.000192642211914,1.4116706848144531
1771038416207832000,14.23383203125,0.9189088344573975,-1.6345610618591309,1.2449350357055664
1771038416226799900,14.2527998046875,0.2323286533355713,-2.2635464668273926,0.9948720932006836
1771038416245767700,14.271767578125,0.6939342021942139,-2.6449975967407227,0.4674553871154785
1771038416264735700,14.29073583984375,0.6937892436981201,-3.0880770683288574,-0.4083724021911621
1771038416283703600,14.30970361328125,-0.008626699447631836,-3.7011733055114746,-1.343632698059082
1771038416302671400,14.32867138671875,-0.965785026550293,-4.628866672515869,-2.261845827102661
1771038416321639200,14.34763916015625,-1.839740514755249,-4.917116165161133,-3.0553770065307617
1771038416340607200,14.366607177734375,-2.3247835636138916,-4.8987836837768555,-3.326181650161743
1771038416359575000,14.385574951171876,-1.5808753967285156,-4.945913314819336,-3.270371198654175
1771038416378542800,14.40454296875,-0.6884365081787109,-4.351387023925781,-3.2560462951660156
1771038416397510700,14.4235107421875,-0.41241705417633057,-4.212435722351074,-2.866093873977661
1771038416416478500,14.442478515625,-0.8172634840011597,-4.158839702606201,-2.8157098293304443
1771038416435446500,14.461446533203125,-0.9097777605056763,-4.305302143096924,-2.4408395290374756
1771038416454414300,14.480414306640625,-1.1344377994537354,-4.384004592895508,-3.020087480545044
1771038416473382100,14.499382080078124,-1.4125758409500122,-4.28294038772583,-3.595182180404663
1771038416492350000,14.518349853515625,-1.8068965673446655,-4.108692169189453,-3.5584940910339355
1771038416511317800,14.53731787109375,-2.375749349594116,-4.486045837402344,-2.024043083190918
1771038416530285600,14.55628564453125,-3.177698850631714,-3.55888295173645,-0.9136171340942383
1771038416549253600,14.575253662109375,-2.906888008117676,-2.446275234222412,-0.16852617263793945
1771038416568221400,14.594221435546874,-2.6146132946014404,-0.7767233848571777,0.11135053634643555
1771038416587189200,14.613189208984375,-1.2279421091079712,0.5994062423706055,0.9550113677978516
1771038416606157000,14.632156982421876,-0.9299308061599731,1.0781116485595703,2.5568275451660156
1771038416625124900,14.651124755859374,-1.309666395187378,2.3852953910827637,4.141567230224609
1771038416644092700,14.6700927734375,-1.6194590330123901,2.647663116455078,4.303145408630371
1771038416663060500,14.689060546875,-0.8840692043304443,2.5000171661376953,3.3727588653564453
1771038416682028300,14.7080283203125,-1.0052905082702637,2.391305923461914,2.986391544342041
1771038416700996400,14.726996337890625,-0.5966603755950928,2.319762706756592,2.9001450538635254
1771038416719964200,14.745964111328124,0.6567072868347168,2.121462345123291,1.853285789489746
1771038416738932000,14.764931884765625,1.4600210189819336,2.807955741882324,1.29353666305542
1771038416757899800,14.783899658203126,0.6726527214050293,1.96905517578125,0.8559699058532715
1771038416776867600,14.80286767578125,0.0011897087097167969,0.44846630096435547,0.2708096504211426
1771038416795835400,14.82183544921875,-0.2769479751586914,-0.3430356979370117,-0.37905311584472656
1771038416814803200,14.84080322265625,-0.5096912384033203,-0.3045530319213867,-0.44278907775878906
1771038416833771000,14.85977099609375,-0.27965307235717773,0.012300968170166016,-0.3876471519470215
1771038416852738800,14.87873876953125,-0.6992278099060059,0.020400524139404297,-0.6229801177978516
1771038416871706600,14.89770654296875,-1.2665133476257324,-0.4662604331970215,-0.8033275604248047
1771038416890674400,14.91667431640625,-2.6397719383239746,-0.7317423820495605,-0.3141336441040039
1771038416909642200,14.935642333984376,-3.6710100173950195,-0.9405694007873535,0.3729076385498047
1771038416928610000,14.954610107421875,-2.8899166584014893,-1.171114444732666,0.11724853515625
1771038416947577900,14.973577880859375,-0.8314652442932129,-0.848212718963623,-0.42348289489746094
1771038416966545700,14.992545654296874,0.6278038024902344,0.2793717384338379,0.12976408004760742
1771038416985513500,15.011513427734375,1.1185078620910645,0.45381879806518555,0.731903076171875
1771038417004481300,15.030481201171876,1.3653459548950195,-0.16178560256958008,1.1479671001434326
1771038417023449000,15.049448974609374,1.895641803741455,-0.8332653045654297,0.30831027030944824
1771038417042417000,15.0684169921875,2.3856420516967773,-0.8464865684509277,-1.5799392461776733
1771038417061384700,15.087384765625,2.5277700424194336,0.7626690864562988,-1.2491071224212646
1771038417080352500,15.1063525390625,0.7252950668334961,3.331350326538086,1.3198206424713135
1771038417099320300,15.1253203125,1.2207756042480469,3.900056838989258,0.868066668510437
1771038417118288100,15.1442880859375,2.5555410385131836,4.475868225097656,-0.9994156956672668
1771038417137256000,15.163255859375,2.607855796813965,5.69468879699707,0.8416659832000732
1771038417156223700,15.1822236328125,3.643050193786621,5.187809944152832,1.7136521339416504
1771038417175191600,15.201191650390625,3.55130672454834,3.9891271591186523,1.420623540878296
1771038417194159400,15.220159423828125,1.8565659523010254,3.326870918273926,1.6183292865753174
1771038417213127200,15.239127197265624,1.7088971138000488,3.0142698287963867,1.3030543327331543
1771038417232094700,15.2580947265625,1.9029409885406494,2.0371761322021484,0.025723695755004883
1771038417251062500,15.2770625,1.4028704166412354,1.877598762512207,-0.4978063106536865
1771038417270030300,15.2960302734375,0.13838505744934082,0.7499828338623047,-0.9398667812347412
1771038417288998100,15.314998046875,-1.0764353275299072,-0.2325878143310547,-0.971511960029602
1771038417307966000,15.333966064453126,-1.7188942432403564,-1.4264092445373535,-1.0917118787765503
1771038417326933800,15.352933837890625,-2.3457703590393066,-2.475905418395996,-1.108928918838501
1771038417345901600,15.371901611328125,-2.358433723449707,-3.67738676071167,-1.5749799013137817
1771038417364869400,15.390869384765624,-2.1589953899383545,-4.77016019821167,-2.4250471591949463
1771038417383837000,15.4098369140625,-2.1722145080566406,-4.527101993560791,-2.1745445728302
1771038417402804700,15.4288046875,-1.8768188953399658,-4.812516689300537,-1.2748584747314453
1771038417421772500,15.4477724609375,-1.5530132055282593,-4.569474220275879,-0.8424937725067139
1771038417440740400,15.466740234375,-0.6585383415222168,-4.503613471984863,-0.48021435737609863
1771038417459708200,15.485708251953126,0.05695295333862305,-4.031136989593506,-0.027987957000732422
1771038417478676000,15.504676025390625,-0.10801219940185547,-3.663662910461426,0.7455682754516602
1771038417497643500,15.5236435546875,0.26836490631103516,-3.2120165824890137,-0.1611342430114746
1771038417516611300,15.542611328125,0.6737635135650635,-2.722120761871338,-1.0971136093139648
1771038417535579100,15.5615791015625,0.0832509994506836,-1.8302206993103027,-0.48854589462280273
1771038417554547000,15.580546875,0.08457469940185547,0.20405960083007812,0.942270040512085
1771038417573514800,15.5995146484375,0.8896496295928955,2.0962066650390625,2.117722511291504
1771038417592482300,15.618482421875,1.210392951965332,3.202859878540039,2.3984994888305664
1771038417611450000,15.6374501953125,1.1269631385803223,3.9975852966308594,2.9724490642547607
1771038417630418000,15.65641796875,1.5730528831481934,4.537044525146484,3.2227087020874023
1771038417649385700,15.6753857421875,2.772737741470337,4.988630294799805,3.226104736328125
1771038417668353300,15.694353271484376,3.019899845123291,5.270983695983887,3.1982059478759766
1771038417687321000,15.713321044921875,2.155100107192993,5.1543378829956055,3.906750440597534
1771038417706289000,15.732288818359375,1.2150237560272217,4.493157386779785,3.2222166061401367
1771038417725256700,15.751256591796874,0.5325760841369629,3.8685379028320312,1.7383790016174316
1771038417744224300,15.770224365234375,1.0340242385864258,3.4283695220947266,-1.2714027166366577
1771038417763192000,15.789192138671876,0.7732753753662109,2.237720489501953,-1.8683290481567383
1771038417782160000,15.808159912109375,-1.9780174493789673,0.6687021255493164,-2.9746265411376953
1771038417801127400,15.82712744140625,-2.9721336364746094,-0.6853847503662109,-2.424525022506714
1771038417820095200,15.84609521484375,-2.917900562286377,-1.9164385795593262,-2.712632417678833
1771038417839063000,15.86506298828125,-2.118483781814575,-2.3839111328125,-2.597874402999878
1771038417858030600,15.884030517578125,-1.5906269550323486,-2.733943462371826,-2.167775869369507
1771038417876998400,15.902998291015624,-1.0466673374176025,-3.0279383659362793,-1.7587028741836548
1771038417895966200,15.92196630859375,-0.5911227464675903,-3.421114921569824,-1.6601730585098267
1771038417914934000,15.94093408203125,-0.88711017370224,-3.8528952598571777,-1.6082674264907837
1771038417933901600,15.959901611328124,-0.707430899143219,-4.240129470825195,-1.6410443782806396
1771038417952869400,15.978869384765625,0.0604739785194397,-4.556612014770508,-1.8499257564544678
1771038417971837200,15.997837158203126,0.5433483719825745,-4.366230487823486,-1.9503750801086426
1771038417990804700,16.0168046875,0.47246459126472473,-3.8740768432617188,-1.8611654043197632
1771038418009772500,16.0357724609375,0.2822495698928833,-3.790005683898926,-2.2610111236572266
1771038418028740000,16.054739990234374,-0.04721711575984955,-3.3749852180480957,-2.3730621337890625
1771038418047708000,16.0737080078125,-0.7459628582000732,-2.4830164909362793,-1.445017695426941
1771038418066675700,16.09267578125,-1.4824988842010498,-1.7495064735412598,-0.2037525177001953
1771038418085643300,16.111643310546874,-2.639894723892212,-0.7621688842773438,0.1453719139099121
1771038418104611000,16.130611083984373,-3.366624593734741,0.40592479705810547,-0.022755861282348633
1771038418123578600,16.14957861328125,-3.4183146953582764,2.168903350830078,-0.08364748954772949
1771038418142546400,16.16854638671875,-3.185464382171631,3.280454635620117,0.6151926517486572
1771038418161514200,16.18751416015625,-4.160379409790039,4.396047592163086,1.3472299575805664
1771038418180481800,16.206481689453124,-3.566822052001953,4.698329925537109,1.8807387351989746
1771038418199449600,16.22544970703125,-2.4092445373535156,5.308155059814453,1.4847803115844727
1771038418218417200,16.244417236328125,-1.9879975318908691,5.038876533508301,1.6449799537658691
1771038418237385000,16.263385009765624,-1.2395999431610107,3.4745311737060547,1.1841204166412354
1771038418256352800,16.282352783203127,-0.8417155742645264,1.9873533248901367,0.8854048252105713
1771038418275320300,16.3013203125,-1.1263666152954102,0.9057121276855469,0.46777987480163574
1771038418294288100,16.3202880859375,-1.7696425914764404,-0.4104156494140625,-0.48253870010375977
1771038418313255700,16.339255615234375,-1.7631487846374512,-1.547574520111084,-1.2564935684204102
1771038418332223500,16.358223388671874,-1.2146484851837158,-2.0543103218078613,-1.5283222198486328
1771038418351191000,16.37719091796875,-0.3442976474761963,-2.519486427307129,-1.7628602981567383
1771038418370158800,16.396158935546875,0.6297072172164917,-2.728397846221924,-2.067030191421509
1771038418389126400,16.41512646484375,1.1427339315414429,-2.4735288619995117,-2.181370258331299
1771038418408094200,16.43409423828125,0.9781155586242676,-2.4035887718200684,-2.1609082221984863
1771038418427061800,16.453061767578124,1.0754414796829224,-2.6898279190063477,-2.3921494483947754
1771038418446029600,16.472029541015626,1.2452696561813354,-2.5793848037719727,-2.3558530807495117
1771038418464997000,16.4909970703125,1.9863922595977783,-2.2704081535339355,-2.1842899322509766
1771038418483965000,16.50996484375,3.102039098739624,-2.139127254486084,-1.6077728271484375
1771038418502932500,16.528932373046874,4.236644268035889,-2.2394776344299316,-1.6471531391143799
1771038418521900000,16.547900146484373,4.4378743171691895,-3.361241340637207,-1.2971537113189697
1771038418540867800,16.566867919921876,3.2913575172424316,-3.510955810546875,-1.0085430145263672
1771038418559835400,16.58583544921875,2.280241012573242,-2.682156562805176,-0.7626314163208008
1771038418578803200,16.60480322265625,2.363840341567993,-2.239917278289795,-0.1886765956878662
1771038418597770800,16.623770751953124,2.383568286895752,-2.8939290046691895,0.6023178100585938
1771038418616738600,16.642738525390627,0.02959918975830078,-2.4022088050842285,1.2031261920928955
1771038418635706000,16.6617060546875,-2.565401077270508,-1.0938472747802734,1.9464638233184814
1771038418654673700,16.680673583984376,-5.635951042175293,0.8369226455688477,2.3677420616149902
1771038418673641500,16.699641357421875,-8.352287292480469,2.998119354248047,2.4578633308410645
1771038418692609000,16.718609130859374,-9.88167953491211,4.728379249572754,1.7393007278442383
1771038418711576800,16.737576904296876,-9.74924373626709,5.878889083862305,0.1861400604248047
1771038418730544400,16.75654443359375,-8.761354446411133,6.714894771575928,-1.2000514268875122
1771038418749512200,16.77551220703125,-6.357032775878906,7.2484636306762695,-1.8005797863006592
1771038418768479700,16.794479736328125,-3.578639030456543,7.037364959716797,-1.9277055263519287
1771038418787447300,16.813447265625,-0.38794565200805664,5.889571189880371,-2.325496196746826
1771038418806415000,16.8324150390625,1.3514115810394287,4.167901992797852,-2.0145092010498047
1771038418825382700,16.851382568359377,1.8675670623779297,2.061990737915039,-1.0329103469848633
1771038418844350200,16.87035009765625,1.5347087383270264,-0.2166595458984375,-0.6158645153045654
1771038418863318000,16.889318115234374,2.3105623722076416,-2.334653854370117,-1.4819921255111694
1771038418882285600,16.90828564453125,2.7579944133758545,-4.222789287567139,-1.2864221334457397
1771038418901253000,16.927253173828124,3.6629390716552734,-4.121386528015137,-0.06914424896240234
1771038418920221000,16.946220947265626,3.66292142868042,-4.155094623565674,0.6374387741088867
1771038418939188500,16.9651884765625,2.6737771034240723,-3.962407112121582,0.25745058059692383
1771038418958156000,16.984156005859376,2.1224427223205566,-3.7927184104919434,-0.18646478652954102
1771038418977123800,17.003123779296875,2.289320468902588,-4.060265064239502,-0.7464172840118408
1771038418996091400,17.02209130859375,2.7709996700286865,-4.181098937988281,-1.4790008068084717
1771038419015059000,17.041058837890624,3.0463063716888428,-3.5642619132995605,-1.9410030841827393
1771038419034026500,17.060026611328126,3.5818424224853516,-2.759258270263672,-2.4189820289611816
1771038419052994300,17.078994384765625,3.1163270473480225,-1.4312877655029297,-2.037113904953003
1771038419071961900,17.0979619140625,2.081234931945801,-0.7325224876403809,-1.8154282569885254
1771038419090929400,17.116929443359375,1.791386604309082,-0.3365793228149414,-2.390223741531372
1771038419109897000,17.13589697265625,1.587963581085205,0.4498424530029297,-1.9838130474090576
1771038419128864800,17.15486474609375,1.0911681652069092,2.372035026550293,-0.11480712890625
1771038419147832300,17.173832275390627,1.0763895511627197,3.259638786315918,0.7645063400268555
1771038419166800000,17.1927998046875,0.5947628021240234,2.6297950744628906,1.1813950538635254
1771038419185767400,17.211767333984376,-1.3825790882110596,2.157862663269043,1.6063580513000488
1771038419204735200,17.2307353515625,-2.1367084980010986,2.029473304748535,2.9122400283813477
1771038419223702800,17.249702880859374,-1.6281189918518066,2.649566650390625,3.8115315437316895
1771038419242670300,17.26867041015625,-1.2101508378982544,3.5829458236694336,5.008063316345215
1771038419261638000,17.287637939453123,-0.673973560333252,3.646367073059082,4.500425815582275
1771038419280605400,17.30660546875,0.21390879154205322,2.428177833557129,3.165130615234375
1771038419299573200,17.3255732421875,0.4800058603286743,1.766143798828125,2.7722225189208984
1771038419318540800,17.344540771484375,0.16987395286560059,1.1457233428955078,2.3264894485473633
1771038419337508400,17.36350830078125,-0.36393439769744873,0.4146537780761719,1.7433547973632812
1771038419356476000,17.382475830078125,-1.0377757549285889,-0.1903820037841797,0.6576747894287109
1771038419375443500,17.401443359375,-0.5913987755775452,-1.1570730209350586,-1.233510971069336
1771038419394411300,17.420411376953126,0.23265624046325684,-2.124380588531494,-2.3223438262939453
1771038419413378800,17.43937890625,0.17248070240020752,-2.951396942138672,-1.9012763500213623
1771038419432346400,17.458346435546876,-1.142629861831665,-4.175294876098633,-1.976725697517395
1771038419451314000,17.47731396484375,-2.418471097946167,-5.3004350662231445,-2.919797897338867
1771038419470281500,17.496281494140625,-3.486140489578247,-5.668015480041504,-3.128431558609009
1771038419489249000,17.5152490234375,-2.5104434490203857,-6.095836639404297,-3.884903907775879
1771038419508216800,17.534216796875,-1.0922694206237793,-5.602669715881348,-3.208758592605591
1771038419527184400,17.553184326171873,-0.2840314507484436,-4.96239709854126,-1.4372360706329346
1771038419546152000,17.57215185546875,0.18968704342842102,-4.484492778778076,-0.9852344989776611
1771038419565119500,17.591119384765626,-0.5276885032653809,-4.338691711425781,-1.8172155618667603
1771038419584087000,17.610087158203125,-1.9028502702713013,-3.744807243347168,-2.93731689453125
1771038419603054600,17.6290546875,-3.2681007385253906,-2.839937210083008,-2.7177109718322754
1771038419622022100,17.648022216796875,-4.242184162139893,-0.8218221664428711,-0.8767330646514893
1771038419640989700,17.66698974609375,-5.451254844665527,1.241628646850586,0.49039602279663086
1771038419659957200,17.685957275390624,-5.906186103820801,2.9462890625,1.3275871276855469
1771038419678925000,17.704925048828127,-5.185487270355225,4.390606880187988,0.3029615879058838
1771038419697892600,17.723892578125,-4.026428699493408,5.369874954223633,0.0686502456665039
1771038419716860200,17.742860107421876,-3.423278331756592,5.539762496948242,0.4247417449951172
1771038419735827700,17.76182763671875,-4.3412041664123535,5.220674514770508,0.779160737991333
1771038419754795300,17.780795166015626,-4.647104263305664,4.621825218200684,1.0461771488189697
1771038419773762800,17.7997626953125,-3.4471726417541504,3.1947011947631836,0.8006043434143066
1771038419792730400,17.81873046875,-2.7475457191467285,1.2443151473999023,0.3369758129119873
1771038419811698000,17.837697998046874,-1.8181016445159912,0.006161689758300781,-0.6083152294158936
1771038419830665500,17.85666552734375,-0.7364954948425293,-0.8746395111083984,-0.8544813990592957
1771038419849633000,17.875633056640623,0.0931847095489502,-1.306854248046875,-0.345000684261322
1771038419868600600,17.8946005859375,0.4864695072174072,-1.8623065948486328,0.015437185764312744
1771038419887568100,17.913568115234376,0.10186386108398438,-1.1331892013549805,0.3864898383617401
1771038419906535700,17.93253564453125,-0.3571028709411621,-2.270702362060547,1.2616302967071533
1771038419925503200,17.951503173828126,-1.5102741718292236,-2.994279384613037,2.3025825023651123
1771038419944470800,17.970470703125,-2.1503164768218994,-2.9706897735595703,3.416260242462158
1771038419963438300,17.989438232421875,-2.052671432495117,-3.085665225982666,4.079632759094238
1771038419982406000,18.008406005859374,-1.9242351055145264,-2.865785598754883,4.22370719909668
1771038420001373400,18.02737353515625,-2.232753276824951,-3.2383675575256348,4.193408966064453
1771038420020341000,18.046341064453124,-2.654367446899414,-3.4511637687683105,3.861621856689453
1771038420039308500,18.06530859375,-2.8813304901123047,-3.1085963249206543,3.4669113159179688
1771038420058276000,18.084276123046877,-2.5695276260375977,-1.7715940475463867,4.3839802742004395
1771038420077243600,18.10324365234375,-1.7626843452453613,-0.2274637222290039,4.845422744750977
1771038420096211200,18.122211181640626,-0.5637607574462891,-0.5492076873779297,4.094944953918457
1771038420115178800,18.1411787109375,-0.3640615940093994,-1.1027512550354004,4.281368255615234
1771038420134146300,18.160146240234376,-0.7142025232315063,0.2785358428955078,3.994612693786621
1771038420153113900,18.17911376953125,-0.39810436964035034,0.3893890380859375,-0.777184009552002
1771038420172081400,18.198081298828125,-0.29713374376296997,-1.1987805366516113,-7.389609336853027
1771038420191049000,18.217049072265624,-5.347682952880859,-2.7458577156066895,-10.21314811706543
1771038420210016500,18.2360166015625,-9.799975395202637,-1.4138364791870117,-7.960214138031006
1771038420228984000,18.254984130859373,-11.042973518371582,-0.8632502555847168,-7.330627918243408
1771038420247951600,18.27395166015625,-10.136370658874512,-1.1708393096923828,-9.659416198730469
1771038420266919200,18.292919189453126,-9.252824783325195,-1.308894157409668,-11.339204788208008
1771038420285886700,18.31188671875,-5.542777061462402,-1.9848179817199707,-9.885623931884766
1771038420304854000,18.33085400390625,-1.8116052150726318,-2.1605286598205566,-6.296713352203369
1771038420323821600,18.349821533203126,0.04614877700805664,-1.4649639129638672,-3.887566089630127
1771038420342789000,18.3687890625,-1.5549547672271729,-2.5449283123016357,-5.189979076385498
1771038420361756700,18.387756591796876,-3.2168943881988525,-4.800021171569824,-7.918386459350586
1771038420380724200,18.40672412109375,-3.038018226623535,-6.651812553405762,-9.391878128051758
1771038420399691800,18.42569189453125,-1.6635710000991821,-6.856609344482422,-9.466859817504883
1771038420418659300,18.444659423828124,1.6125797033309937,-6.928528308868408,-8.112062454223633
1771038420437627000,18.463626953125,4.999249458312988,-6.370335578918457,-4.833520889282227
1771038420456594400,18.482594482421874,6.652614116668701,-4.965473651885986,-1.5868682861328125
1771038420475561700,18.501561767578124,6.32691764831543,-3.03446888923645,0.6822667121887207
1771038420494529300,18.520529296875,5.1915082931518555,-2.6878209114074707,1.2970552444458008
1771038420513496800,18.539496826171874,2.819472312927246,-3.0362839698791504,1.4666051864624023
1771038420532464400,18.55846435546875,-0.019785642623901367,-3.2961502075195312,0.9045324325561523
1771038420551432000,18.577431884765623,-0.5572729110717773,-3.771801710128784,0.004670143127441406
1771038420570399500,18.5963994140625,0.3321068286895752,-2.9146289825439453,0.5047063827514648
1771038420589367000,18.615366943359376,1.9023311138153076,-1.206294059753418,1.3965401649475098
1771038420608334300,18.634334228515623,2.9727373123168945,-0.203582763671875,1.5794744491577148
1771038420627302000,18.653302001953126,3.066572666168213,-0.17188310623168945,1.2670187950134277
1771038420646269400,18.67226953125,2.128722667694092,-0.12844514846801758,0.6376986503601074
1771038420665237000,18.691237060546875,1.0013532638549805,-0.6170110702514648,-1.2642817497253418
1771038420684204500,18.71020458984375,0.21312165260314941,-1.3779339790344238,-2.438875675201416
1771038420703171800,18.729171875,0.26149773597717285,-1.1740331649780273,-2.153820037841797
1771038420722139400,18.748139404296875,-0.8143643140792847,0.10564231872558594,-0.18178987503051758
1771038420741107000,18.76710693359375,-3.065570831298828,1.6676406860351562,-0.41175365447998047
1771038420760074500,18.786074462890625,-5.688813209533691,2.017711639404297,-3.8573126792907715
1771038420779041800,18.805041748046875,-6.276315212249756,1.9564743041992188,-9.381424903869629
1771038420798009300,18.82400927734375,-3.5473995208740234,0.9462471008300781,-11.42989730834961
1771038420816977000,18.842976806640625,-2.7219159603118896,0.9598350524902344,-6.967871189117432
1771038420835944400,18.8619443359375,-2.4994611740112305,0.718134880065918,-4.064108848571777
1771038420854912000,18.880912109375,-2.670708179473877,0.13684844970703125,-3.389510154724121
1771038420873879300,18.89987939453125,-1.5793081521987915,-0.7317180633544922,-3.9583773612976074
1771038420892846800,18.918846923828124,0.21696186065673828,-1.2807159423828125,-3.34273099899292
1771038420911814400,18.937814453125,0.8332014083862305,-1.3386836051940918,-1.8145534992218018
1771038420930782000,18.956781982421877,-0.03269076347351074,-2.1005234718322754,-0.5669448375701904
1771038420949749200,18.975749267578124,-2.0852153301239014,-3.6801486015319824,0.0897665023803711
1771038420968716800,18.994716796875,-3.8788723945617676,-4.976391792297363,0.4864494800567627
1771038420987684400,19.013684326171877,-4.779041290283203,-5.597406387329102,0.8194007873535156
1771038421006652000,19.03265185546875,-4.140645503997803,-5.63733434677124,0.07128286361694336
1771038421025619200,19.051619140625,-3.238513231277466,-5.235896587371826,-0.6584136486053467
1771038421044586800,19.070586669921877,-3.1860411167144775,-4.611692428588867,-0.6840624809265137
1771038421063554300,19.08955419921875,-3.3949594497680664,-4.175342559814453,-0.38860559463500977
1771038421082521600,19.108521484375,-3.364663600921631,-3.426785469055176,-0.18421649932861328
1771038421101489200,19.1274892578125,-2.8874120712280273,-2.7614383697509766,-0.7428724765777588
1771038421120456700,19.146456787109376,-3.0981311798095703,-1.9117841720581055,-1.0147528648376465
1771038421139424300,19.16542431640625,-3.0501770973205566,-0.847074031829834,-0.15644550323486328
1771038421158391600,19.1843916015625,-3.657740831375122,0.31054210662841797,2.186481475830078
1771038421177359000,19.203359130859376,-4.653156757354736,0.9109649658203125,2.553832530975342
1771038421196326700,19.22232666015625,-4.8683085441589355,0.5786738395690918,-1.2143654823303223
1771038421215294000,19.2412939453125,-2.6765618324279785,0.47045278549194336,-4.162418365478516
1771038421234261500,19.260261474609376,-1.3105617761611938,0.6781487464904785,-3.9933390617370605
1771038421253229000,19.27922900390625,-0.41235828399658203,0.6346044540405273,-3.2682323455810547
1771038421272196400,19.2981962890625,-0.910977840423584,-0.3431558609008789,-3.312464714050293
1771038421291164000,19.317163818359376,-1.9088350534439087,-1.1151609420776367,-2.3630499839782715
1771038421310131500,19.33613134765625,-2.908360242843628,-1.7220869064331055,-1.3051018714904785
1771038421329098800,19.3550986328125,-3.375303268432617,-2.563904285430908,-1.6070070266723633
1771038421348066300,19.37406640625,-2.6776299476623535,-2.9584126472473145,-2.5269298553466797
1771038421367033900,19.393033935546875,-1.2947884798049927,-3.1407175064086914,-3.4738035202026367
1771038421386001200,19.412001220703125,-0.6621803045272827,-3.0294156074523926,-3.155217170715332
1771038421404968700,19.43096875,-0.9500161409378052,-3.376516819000244,-3.1886777877807617
1771038421423936300,19.449936279296875,-0.6834938526153564,-3.9262447357177734,-4.1492919921875
1771038421442903600,19.468903564453125,0.998610258102417,-3.50181245803833,-5.359480857849121
1771038421461871000,19.48787109375,2.807800769805908,-2.448854923248291,-6.203287124633789
1771038421480838400,19.50683837890625,4.198097229003906,-2.05680513381958,-6.630011081695557
1771038421499806000,19.525805908203125,3.7906084060668945,-1.7420744895935059,-5.57252836227417
1771038421518773200,19.544773193359376,3.27122163772583,-2.67873477935791,-5.891694068908691
1771038421537740800,19.56374072265625,3.8500709533691406,-1.9329619407653809,-6.64149284362793
1771038421556708400,19.582708251953125,4.015793323516846,-1.8926093578338623,-5.893281936645508
1771038421575675600,19.601675537109376,3.0542750358581543,-1.1727349758148193,-3.0588340759277344
1771038421594643200,19.620643310546875,2.414735794067383,-0.827655553817749,-0.5544953346252441
1771038421613610500,19.639610595703125,1.574784278869629,-0.5292873382568359,1.1496710777282715
1771038421632578000,19.658578125,1.3600153923034668,-0.09578299522399902,1.5788164138793945
1771038421651545600,19.677545654296875,0.2761349678039551,0.6197106838226318,2.3508639335632324
1771038421670513000,19.696512939453125,-0.7477092742919922,0.9762217998504639,2.4345703125
1771038421689480400,19.71548046875,-1.1179022789001465,0.9974613189697266,2.752607822418213
1771038421708447700,19.73444775390625,-2.028256893157959,0.9428458213806152,3.4850592613220215
1771038421727415300,19.753415283203125,-2.999453067779541,0.6612157821655273,3.6944146156311035
1771038421746382800,19.7723828125,-2.560551404953003,0.851848840713501,2.6757006645202637
1771038421765350100,19.79135009765625,-1.9697182178497314,1.2927894592285156,2.7023611068725586
1771038421784317700,19.810317626953125,-1.574749231338501,1.912799596786499,3.2529425621032715
1771038421803285000,19.829284912109376,-1.5098485946655273,1.8894078731536865,2.5783543586730957
1771038421822252500,19.84825244140625,-1.2498879432678223,2.1062722206115723,2.0521535873413086
1771038421841219800,19.8672197265625,-1.426649570465088,2.25949764251709,1.272505283355713
1771038421860187400,19.8861875,-2.454972267150879,2.260100841522217,-0.12294769287109375
1771038421879154700,19.90515478515625,-2.736541271209717,1.604567527770996,-1.1954030990600586
1771038421898122200,19.924122314453125,-2.3603785037994385,1.1109263896942139,-1.4353737831115723
1771038421917089500,19.943089599609376,-2.5779097080230713,0.8689548969268799,-1.9762639999389648
1771038421936057000,19.96205712890625,-2.7608559131622314,-0.04935145378112793,-4.913260459899902
1771038421955024600,19.981024658203125,-2.869002103805542,-1.623007893562317,-8.719213485717773
1771038421973992000,19.999991943359376,-1.1476740837097168,-2.1497244834899902,-10.064143180847168
1771038421992959500,20.01895947265625,1.4511823654174805,-1.85524582862854,-8.418496131896973
1771038422011926800,20.0379267578125,2.552755832672119,-1.4122432470321655,-6.368224620819092
1771038422030894000,20.05689404296875,1.120246410369873,-1.9299105405807495,-5.634443759918213
1771038422049861600,20.075861572265627,-0.17957448959350586,-2.630549430847168,-5.425162315368652
1771038422068829000,20.094828857421874,-1.0514192581176758,-3.152738094329834,-4.585634231567383
1771038422087796500,20.11379638671875,-1.8104329109191895,-3.3103113174438477,-3.1206727027893066
1771038422106763800,20.132763671875,-2.592263698577881,-3.129295825958252,-1.5304045677185059
1771038422125731300,20.1517314453125,-3.2103443145751953,-3.001169204711914,-0.5006389617919922
1771038422144698600,20.17069873046875,-3.355743646621704,-2.876624584197998,0.1894378662109375
1771038422163666200,20.189666259765627,-3.619248151779175,-2.6460394859313965,0.7432489395141602
1771038422182633500,20.208633544921874,-3.704869031906128,-2.306929588317871,1.450871467590332
1771038422201601000,20.22760107421875,-3.6911089420318604,-2.1232798099517822,2.186443328857422
1771038422230052000,20.256052001953126,-3.1586477756500244,-2.195385694503784,2.514350414276123
1771038422249019400,20.275019287109377,-2.4671568870544434,-2.1868081092834473,2.5785908699035645
1771038422267987000,20.293987060546876,-1.627826452255249,-1.803147792816162,2.955108165740967
1771038422286954200,20.312954345703126,-0.6865310668945312,-1.0701284408569336,3.6437764167785645
1771038422305921800,20.331921875,0.30992984771728516,-0.44066524505615234,4.155938148498535
1771038422324889000,20.35088916015625,1.4635529518127441,-0.3936958312988281,4.237260818481445
1771038422343856600,20.369856689453126,2.447874069213867,0.035437583923339844,4.369953155517578
1771038422362824000,20.388823974609377,3.3025050163269043,0.41718292236328125,3.856614589691162
1771038422381791500,20.40779150390625,4.069584846496582,0.5040884017944336,2.733804225921631
1771038422410242600,20.43624267578125,5.717811107635498,0.9639363288879395,0.40518856048583984
1771038422429209900,20.4552099609375,6.304790019989014,0.3407764434814453,-1.1394567489624023
1771038422448177400,20.474177490234375,6.66848611831665,-1.3386073112487793,-2.791602611541748
1771038422467144700,20.493144775390626,5.854576110839844,-3.1409196853637695,-4.360315799713135
1771038422486112000,20.512112060546876,3.7283802032470703,-2.909841537475586,-6.060406684875488
1771038422505079600,20.53107958984375,1.9855389595031738,-0.9008817672729492,-6.984262466430664
1771038422524046800,20.550046875,2.445343017578125,-0.18198585510253906,-8.837392807006836
1771038422543014400,20.569014404296876,3.8657093048095703,-2.2965197563171387,-8.927745819091797
1771038422561981700,20.587981689453127,4.110970973968506,-3.4941282272338867,-7.323243618011475
1771038422580949000,20.606948974609374,5.941921710968018,-2.8602328300476074,-5.159485340118408
1771038422599916500,20.62591650390625,8.455917358398438,-2.36279296875,-4.272968769073486
1771038422618883800,20.6448837890625,9.186408996582031,-1.5042724609375,-3.8062405586242676
1771038422637851400,20.663851318359374,10.117730140686035,-1.8007020950317383,-3.812467575073242
1771038422656818700,20.682818603515624,9.508201599121094,-2.4598424434661865,-4.514986038208008
1771038422675786000,20.701785888671875,7.868522644042969,-3.6282968521118164,-5.884061813354492
1771038422694753500,20.72075341796875,6.016768455505371,-4.893265247344971,-6.02152156829834
1771038422713720800,20.739720947265624,4.668004989624023,-5.79565954208374,-5.362401962280273
1771038422732688100,20.758688232421875,2.267868995666504,-5.350188255310059,-3.5986833572387695
1771038422751655700,20.77765576171875,-0.9966869354248047,-4.600999355316162,-0.619504451751709
1771038422770623000,20.796623046875,-2.335866928100586,-4.6650495529174805,0.62274169921875
1771038422789590500,20.815590576171875,-2.7861380577087402,-4.681501388549805,1.1832935810089111
1771038422808557800,20.834557861328125,-2.016852378845215,-5.484814167022705,1.7211852073669434
1771038422827525000,20.853525146484376,-2.1408567428588867,-7.079248428344727,2.137657642364502
1771038422846492400,20.872492431640627,-2.7769813537597656,-8.051547050476074,1.4195520877838135
1771038422865460000,20.8914599609375,-2.663425922393799,-8.363265037536621,0.6551418304443359
1771038422884427300,20.91042724609375,-3.780310869216919,-8.495194435119629,0.847291111946106
1771038422903394800,20.929394775390627,-5.9583420753479,-8.147618293762207,0.12136697769165039
1771038422922362000,20.948362060546874,-6.028252601623535,-7.169003963470459,-0.07889997959136963
1771038422941329400,20.967329345703124,-4.33478307723999,-5.742326736450195,-0.6220912933349609
1771038422960297000,20.986296875,-3.212587833404541,-4.098827362060547,-2.2736551761627197
1771038422979264300,21.00526416015625,-1.05690336227417,-3.2324042320251465,-4.163747787475586
1771038422998231600,21.0242314453125,0.006006479263305664,-2.241847038269043,-4.459171295166016
1771038423017199000,21.04319921875,-0.6181437969207764,-0.08741950988769531,-4.536367416381836
1771038423036166400,21.06216650390625,-1.127708911895752,2.70458984375,-4.796521186828613
1771038423055133700,21.0811337890625,-0.4660630226135254,3.7830753326416016,-4.840217590332031
1771038423074101200,21.100101318359375,0.7162883281707764,2.609994888305664,-4.940074920654297
1771038423093068500,21.119068603515625,0.6706352233886719,0.40543460845947266,-3.7227320671081543
1771038423112035800,21.138035888671876,-0.6206469535827637,-0.8470044136047363,-1.9198390245437622
1771038423131003100,21.157003173828127,-1.0282635688781738,-1.6289191246032715,-0.937145471572876
1771038423149970700,21.175970703125,-0.740192174911499,-1.8959012031555176,-1.9603561162948608
1771038423168938000,21.19493798828125,0.08137774467468262,-2.5490169525146484,-4.467546463012695
1771038423187905300,21.2139052734375,0.8994088172912598,-3.336946487426758,-6.867618560791016
1771038423206872800,21.232872802734374,0.40468502044677734,-3.972872257232666,-7.266530990600586
1771038423225840000,21.251840087890624,-0.9738848209381104,-4.534570217132568,-6.9493818283081055
1771038423244807400,21.270807373046875,-1.6609320640563965,-5.9789886474609375,-6.431785583496094
1771038423263774700,21.289774658203125,-2.081974744796753,-7.094485759735107,-5.400996208190918
1771038423282742300,21.3087421875,-2.6355602741241455,-6.904404163360596,-4.2609453201293945
1771038423301709600,21.32770947265625,-1.8453774452209473,-5.3440351486206055,-2.853689193725586
1771038423320676900,21.3466767578125,-1.7327380180358887,-3.8743526935577393,-0.908542275428772
1771038423339644400,21.36564453125,-1.5700483322143555,-3.149423599243164,-0.04259908199310303
1771038423358611700,21.38461181640625,-1.2679219245910645,-3.415693998336792,-0.2005479335784912
1771038423377579000,21.4035791015625,-2.142904758453369,-4.836179733276367,0.9171477556228638
1771038423396546300,21.42254638671875,-4.134427070617676,-6.002239227294922,3.537891387939453
1771038423415513900,21.441513916015627,-3.794107675552368,-7.555890083312988,5.107314586639404
1771038423434481200,21.460481201171874,-2.1086602210998535,-8.831707000732422,3.585934638977051
1771038423453448400,21.479448486328124,1.705195426940918,-9.423704147338867,1.8498694896697998
1771038423472416000,21.498416015625,4.632650375366211,-8.986257553100586,2.118556499481201
1771038423491383300,21.51738330078125,5.655678749084473,-7.91873836517334,2.787177324295044
1771038423510350600,21.5363505859375,5.4320831298828125,-8.087236404418945,2.7193963527679443
1771038423529318000,21.55531787109375,7.736261367797852,-7.5987982749938965,2.665938377380371
1771038423548285200,21.57428515625,12.27107048034668,-3.8549602031707764,4.643292427062988
1771038423567252700,21.593252685546876,15.140887260437012,-0.6519037485122681,5.8154449462890625
1771038423586220000,21.612219970703126,15.92249870300293,-0.8482676148414612,4.891482353210449
1771038423605187300,21.631187255859373,14.202787399291992,-1.5837477445602417,3.210714101791382
1771038423624155000,21.65015478515625,13.767400741577148,0.2812241315841675,2.0486485958099365
1771038423643122200,21.6691220703125,16.08055877685547,3.7409658432006836,0.5115010738372803
1771038423662089500,21.68808935546875,20.781604766845703,7.229477405548096,-6.649144172668457
1771038423681056800,21.707056884765624,20.395584106445312,7.82186222076416,-10.981672286987305
1771038423700024300,21.7260244140625,15.642346382141113,8.186819076538086,-11.031881332397461
1771038423718991600,21.74499169921875,8.891529083251953,5.783496379852295,-11.149012565612793
1771038423737959000,21.763958984375,0.4667825698852539,2.1270902156829834,-9.391899108886719
1771038423756926200,21.78292626953125,-6.533756256103516,-0.9976999759674072,-6.5350213050842285
1771038423775893800,21.801893798828125,-10.389808654785156,-4.179636001586914,-4.688953876495361
1771038423794860800,21.82086083984375,-12.389925003051758,-5.382812976837158,-3.5417604446411133
1771038423813828400,21.839828369140626,-12.737970352172852,-5.311323165893555,-3.1472671031951904
1771038423832795600,21.858795654296873,-12.690616607666016,-4.650397300720215,-2.705181121826172
1771038423851763000,21.877762939453124,-11.424088478088379,-3.491724729537964,-2.4417784214019775
1771038423870730500,21.89673046875,-9.6649169921875,-1.717930555343628,-1.4838420152664185
1771038423889697800,21.91569775390625,-7.901188850402832,1.0778231620788574,-0.5125770568847656
1771038423908665000,21.9346650390625,-5.49894905090332,2.368220329284668,-0.7631981372833252
1771038423927632400,21.95363232421875,-4.453892707824707,1.9739766120910645,-0.9553754925727844
1771038423946599700,21.972599609375,-5.403810501098633,1.0257487297058105,-0.17049860954284668
1771038423965567200,21.991567138671876,-5.711068153381348,-0.1809825897216797,1.1728591918945312
1771038423984534500,22.010534423828126,-6.087275505065918,-1.6884689331054688,0.7164011001586914
1771038424003501800,22.029501708984377,-3.8701393604278564,-3.2302091121673584,-3.359448194503784
1771038424022469000,22.04846923828125,-1.2803807258605957,-5.828771114349365,-9.335197448730469
1771038424041436700,22.067436767578126,0.7026891708374023,-7.299124240875244,-10.76901626586914
1771038424060404000,22.086404052734373,1.4709467887878418,-7.900788307189941,-7.300826072692871
1771038424079371300,22.105371337890624,-0.8429369926452637,-5.921854496002197,-0.4127976894378662
1771038424098338600,22.124338623046874,0.15836668014526367,-2.2915444374084473,3.0253615379333496
1771038424117305900,22.143305908203125,5.2082953453063965,0.9525055885314941,3.1220216751098633
1771038424136273200,22.162273193359376,8.176431655883789,1.0801243782043457,4.034477710723877
1771038424155240700,22.18124072265625,6.281778812408447,-0.04849529266357422,6.450322151184082
1771038424174208000,22.2002080078125,3.9074535369873047,-3.3594088554382324,3.8485465049743652
1771038424193175300,22.21917529296875,1.1380558013916016,-7.172364234924316,0.2548980712890625
1771038424212142600,22.238142578125,-2.3153176307678223,-7.24160623550415,-0.0999305248260498
1771038424231110000,22.25710986328125,-4.190154075622559,-7.176300048828125,0.14429807662963867
1771038424250077200,22.2760771484375,-4.435044288635254,-7.904674053192139,0.7650485038757324
1771038424269044500,22.29504443359375,-4.705839157104492,-6.590628623962402,3.744737148284912
1771038424288012000,22.314011962890625,-3.748260021209717,-5.727180480957031,5.22495174407959
1771038424306979300,22.332979248046875,-0.3916506767272949,-4.997922420501709,3.576000452041626
1771038424325946600,22.351946533203126,3.575693130493164,-4.5221476554870605,2.023582696914673
1771038424344914000,22.370913818359377,3.4438719749450684,-3.6098902225494385,3.3427529335021973
1771038424363881200,22.389881103515624,2.2151904106140137,-3.318538188934326,4.854647159576416
1771038424382848500,22.4088486328125,1.5497117042541504,-4.399309158325195,4.794317245483398
1771038424401816000,22.427816162109377,1.3457489013671875,-5.3463335037231445,4.1812872886657715
1771038424420783400,22.446783447265624,3.4566593170166016,-6.063632965087891,2.0903403759002686
1771038424439750700,22.465750732421874,7.680245399475098,-4.961720943450928,0.3815131187438965
1771038424458718000,22.484718017578125,11.814885139465332,-3.7811965942382812,-0.998598575592041
1771038424477685200,22.503685302734375,12.49833869934082,-3.2152063846588135,-1.3926806449890137
1771038424496652500,22.522652587890626,10.537672996520996,-3.566929340362549,-2.2382969856262207
1771038424515620000,22.5416201171875,9.987771987915039,-1.9396486282348633,-6.070064544677734
1771038424534587400,22.56058740234375,8.750181198120117,-0.1246645450592041,-11.606785774230957
1771038424553554700,22.5795546875,10.1983060836792,2.1710712909698486,-12.030956268310547
1771038424572522000,22.59852197265625,11.11130428314209,2.1546168327331543,-9.48055648803711
1771038424591489300,22.6174892578125,8.971285820007324,-2.216895580291748,-8.880952835083008
1771038424610456600,22.63645654296875,6.287901878356934,-1.8955469131469727,-12.384057998657227
1771038424629423900,22.655423828125,8.817521095275879,0.7607079744338989,-19.005882263183594
1771038424648391200,22.67439111328125,9.751205444335938,0.9450060725212097,-17.788331985473633
1771038424667358500,22.6933583984375,4.969879150390625,1.7443196773529053,-12.711978912353516
1771038424686326000,22.712325927734376,-1.8023977279663086,-0.016717255115509033,-8.854294776916504
1771038424705293300,22.731293212890623,-6.466108322143555,-0.9479728937149048,-6.500839710235596
1771038424724260600,22.750260498046874,-8.195564270019531,-2.919783592224121,-3.781676769256592
1771038424743228000,22.769227783203124,-9.671285629272461,-4.2474589347839355,-0.15449047088623047
1771038424762195200,22.7881953125,-10.366317749023438,-4.856428623199463,3.2490291595458984
1771038424781162500,22.80716259765625,-11.310855865478516,-4.694152355194092,5.835756778717041
1771038424800129800,22.8261298828125,-11.567123413085938,-3.987849473953247,6.7236223220825195
1771038424819097000,22.84509716796875,-10.809172630310059,-3.28594970703125,6.640933036804199
1771038424838064400,22.864064453125,-8.978978157043457,-2.566018581390381,5.4201812744140625
1771038424857031700,22.88303173828125,-6.981092929840088,-2.2232022285461426,3.541703224182129
1771038424875999200,22.901999267578127,-5.141834735870361,-2.188842535018921,1.7372782230377197
1771038424894966300,22.92096630859375,-4.969042778015137,-1.433356761932373,3.424163818359375
1771038424913933800,22.939933837890624,-5.733534812927246,-0.8929142951965332,5.177577018737793
1771038424932901000,22.958901123046875,-5.640289306640625,-0.8383612632751465,5.918542385101318
1771038424951868400,22.977868408203125,-5.855570316314697,-1.122969150543213,3.7727856636047363
1771038424970835700,22.996835693359376,-2.9147517681121826,-1.5507793426513672,-1.904703140258789
1771038424989803000,23.015802978515627,0.9948382377624512,-1.6220312118530273,-5.7795209884643555
1771038425008770300,23.034770263671874,3.1010851860046387,-1.1505327224731445,-6.307922840118408
1771038425027737600,23.053737548828124,3.301811695098877,-2.501154661178589,-7.466350078582764
1771038425046705000,23.072704833984375,3.3252367973327637,-3.8304879665374756,-4.535792350769043
1771038425065672200,23.091672119140625,1.6646728515625,-0.9419035911560059,0.38926267623901367
1771038425084639500,23.110639404296876,4.826417922973633,1.5345888137817383,-0.4200272560119629
1771038425103606800,23.129606689453126,8.73797607421875,4.603325843811035,-0.45481014251708984
1771038425122574000,23.148573974609373,10.045272827148438,4.487046241760254,-1.9565515518188477
1771038425141541400,23.167541259765624,7.387973308563232,3.497671604156494,-1.0844817161560059
1771038425160508700,23.1865087890625,2.7335171699523926,2.3241024017333984,0.0625457763671875
1771038425179476000,23.20547607421875,-1.0384750366210938,-0.6699934005737305,0.10384750366210938
1771038425198443300,23.224443359375,-3.0040879249572754,-3.642331600189209,0.10650253295898438
1771038425217410600,23.24341064453125,-3.4163613319396973,-5.449061870574951,-0.2680034637451172
1771038425236377900,23.2623779296875,-3.5874805450439453,-5.742959499359131,0.7424249649047852
1771038425255345200,23.28134521484375,-4.0673675537109375,-5.38543701171875,3.7824466228485107
1771038425274312400,23.3003125,-4.146696090698242,-5.093860626220703,6.897113800048828
1771038425293279700,23.31927978515625,-4.719903945922852,-4.581700801849365,8.510538101196289
1771038425312247000,23.3382470703125,-4.397459506988525,-4.32588005065918,7.274733066558838
1771038425331214300,23.35721435546875,-2.3808839321136475,-4.281804084777832,4.48983907699585
1771038425350181600,23.376181640625,-0.21933746337890625,-3.3793556690216064,2.323615074157715
1771038425369149000,23.39514892578125,0.8020057678222656,-2.125900983810425,2.774904727935791
1771038425388116200,23.4141162109375,1.01847505569458,-1.687448501586914,3.403567314147949
1771038425407083500,23.43308349609375,0.3917570114135742,-1.9656580686569214,3.395231246948242
1771038425426050800,23.45205078125,1.3706278800964355,-2.4634273052215576,1.014277458190918
1771038425445018000,23.47101806640625,4.262096405029297,-2.079556465148926,-2.017606735229492
1771038425463985400,23.4899853515625,7.610730171203613,-1.1174830198287964,-4.107382297515869
1771038425482952700,23.50895263671875,11.937475204467773,0.5184085369110107,-7.724429130554199
1771038425501920000,23.527919921875,14.739084243774414,1.308241605758667,-12.034080505371094
1771038425520887300,23.54688720703125,14.025754928588867,0.7158524990081787,-12.211241722106934
1771038425539854600,23.5658544921875,8.342660903930664,-0.018041610717773438,-6.685632228851318
1771038425558822000,23.58482177734375,3.082707405090332,-1.5869511365890503,-4.259308338165283
1771038425577789200,23.6037890625,2.112461566925049,-2.4072351455688477,-5.678837776184082
1771038425596756500,23.622756591796875,2.8326964378356934,-0.840092658996582,-5.1278557777404785
1771038425615723800,23.641723876953126,3.396242141723633,0.500086784362793,-5.619363784790039
1771038425634691000,23.660691162109377,1.659848690032959,1.356083631515503,-4.616832256317139
1771038425653658000,23.679658203125,-0.6686863899230957,1.6318659782409668,-5.8859028816223145
1771038425672625400,23.69862548828125,-2.1855878829956055,1.8180418014526367,-6.234340667724609
1771038425691592700,23.7175927734375,-2.9548068046569824,1.0317497253417969,-6.035152912139893
1771038425710560000,23.73656005859375,-5.125876426696777,-0.4255952835083008,-5.517971038818359
1771038425729527300,23.75552734375,-7.229682922363281,-1.4481987953186035,-4.720623016357422
1771038425748494600,23.77449462890625,-7.232314109802246,-2.3106801509857178,-3.5966906547546387
1771038425767462000,23.7934619140625,-6.249939441680908,-2.7679038047790527,-0.9556403160095215
1771038425786429200,23.81242919921875,-5.380246162414551,-2.978949785232544,2.371056318283081
1771038425805396500,23.831396484375,-5.025224685668945,-2.965914726257324,4.750108242034912
1771038425824363800,23.85036376953125,-4.186002731323242,-2.572145700454712,5.048407554626465
1771038425843331000,23.8693310546875,-3.321490526199341,-2.570668935775757,3.8529391288757324
1771038425862298000,23.888298095703124,-3.5907843112945557,-2.414450168609619,3.540226459503174
1771038425881265400,23.907265380859375,-3.628206729888916,-1.5857481956481934,3.169694185256958
1771038425900232700,23.926232666015625,-3.221895456314087,-1.0186123847961426,1.6257319450378418
1771038425919200000,23.945199951171876,-2.6210222244262695,-0.8712520599365234,0.5457963943481445
1771038425938167300,23.964167236328127,-1.9049453735351562,-0.512174129486084,0.43669748306274414
1771038425957134600,23.983134521484374,-1.204472541809082,-0.14017152786254883,0.8912725448608398
1771038425976102000,24.002101806640624,-1.176114559173584,0.4824056625366211,1.750647783279419
1771038425995069200,24.021069091796875,-1.5390205383300781,1.305330753326416,2.1315133571624756
1771038426014036200,24.0400361328125,-1.7645220756530762,1.6764659881591797,0.7164945602416992
1771038426033003500,24.05900341796875,-1.1694459915161133,1.5496106147766113,-1.8734660148620605
