time,seconds_elapsed,z,y,x
1771038402135803100,0.16180322265625,0.41844236850738525,0.09712749719619751,0.2052505612373352
1771038402154771200,0.180771240234375,0.5094612240791321,-0.08491020649671555,0.3543015718460083
1771038402173739300,0.1997392578125,0.6328558921813965,0.07086031138896942,0.5039634704589844
1771038402192707600,0.21870751953125,0.7049379348754883,0.5112938284873962,0.5314523577690125
1771038402211675600,0.237675537109375,0.6914989352226257,0.9010255336761475,0.25900667905807495
1771038402230643700,0.256643798828125,0.5198459029197693,1.063515543937683,-0.12644900381565094
1771038402249611800,0.27561181640625,0.3402516841888428,0.7709113359451294,-0.2669478952884674
1771038402268580000,0.294580078125,0.10384701192378998,0.3402516841888428,-0.30115634202957153
1771038402287548200,0.313548095703125,-0.15638138353824615,0.23335035145282745,-0.3451386094093323
1771038402306516200,0.33251611328125,-0.04886918142437935,0.5558869242668152,-0.3903425931930542
1771038402325484300,0.351484375,0.2461785078048706,1.176525592803955,-0.526565432548523
1771038402344452600,0.37045263671875,0.47097674012184143,1.7403537034988403,-0.8558215498924255
1771038402363420700,0.389420654296875,0.24373504519462585,1.3683371543884277,-1.229670763015747
1771038402382388700,0.408388671875,0.021380268037319183,0.5583304166793823,-1.266933560371399
1771038402401356800,0.427356689453125,-0.024434590712189674,-0.3909534513950348,-0.9841031432151794
1771038402420324900,0.446324951171875,0.018325943499803543,-1.064737319946289,-0.43493571877479553
1771038402439293200,0.465293212890625,0.17104214429855347,-1.2626575231552124,0.056810423731803894
1771038402458261200,0.48426123046875,0.2419024556875229,-1.2522728443145752,0.19853104650974274
1771038402477229600,0.5032294921875,0.462424635887146,-1.3964369297027588,0.22418737411499023
1771038402496197600,0.52219775390625,0.7073814272880554,-1.7287473678588867,0.5760455131530762
1771038402515165700,0.541165771484375,0.9841031432151794,-1.5515965223312378,0.8979712128639221
1771038402534133800,0.5601337890625,1.0488548278808594,-1.6346741914749146,0.8252783417701721
1771038402553102000,0.57910205078125,0.7959567904472351,-1.5888593196868896,0.40255987644195557
1771038402572070100,0.598070068359375,0.6090322136878967,-1.352454662322998,0.1844811588525772
1771038402591038200,0.6170380859375,0.6071996092796326,-0.9071341753005981,0.20402882993221283
1771038402610006300,0.63600634765625,0.4471530318260193,-0.3280344009399414,0.19364413619041443
1771038402628974600,0.654974609375,0.3903425931930542,-0.3439168632030487,0.18753549456596375
1771038402647942700,0.673942626953125,0.6444623470306396,-0.9547816514968872,0.053145237267017365
1771038402666910700,0.69291064453125,1.4257583618164062,-1.3194679021835327,-0.21746785938739777
1771038402685878800,0.711878662109375,2.0946552753448486,-1.8295400142669678,-0.36285367608070374
1771038402704846800,0.730846923828125,2.0354013442993164,-1.5320488214492798,-0.2516762912273407
1771038402723815200,0.749815185546875,1.5796962976455688,-0.7538071274757385,0.32070401310920715
1771038402742783200,0.768783203125,0.7623592615127563,-0.24434591829776764,1.072678565979004
1771038402761751300,0.787751220703125,0.09957095980644226,-0.8002328872680664,1.0299180746078491
1771038402780719400,0.80671923828125,0.2003636509180069,-1.156977891921997,0.7641918659210205
1771038402799687700,0.825687744140625,0.33536475896835327,-1.5613703727722168,0.758694052696228
1771038402818655700,0.84465576171875,0.13683371245861053,-1.9022328853607178,1.0470222234725952
1771038402837623800,0.863623779296875,-0.046425722539424896,-1.5833615064620972,1.0793980360031128
1771038402856592000,0.882591796875,0.0513126403093338,-0.9847140312194824,1.183245062828064
1771038402875560200,0.901560302734375,0.07574722915887833,-0.8869756460189819,1.3506220579147339
1771038402894528300,0.9205283203125,-0.06902772188186646,-1.2437206506729126,1.1588104963302612
1771038402913496300,0.939496337890625,-0.12278381735086441,-1.619402527809143,0.8100066781044006
1771038402932464400,0.95846435546875,-0.22785256803035736,-1.5754202604293823,0.6230821013450623
1771038402951432700,0.9774326171875,-0.3280344009399414,-1.1148282289505005,0.4465421438217163
1771038402970400800,0.99640087890625,-0.4196641147136688,-0.5913171172142029,0.018325943499803543
1771038402989368800,1.015368896484375,-0.5888736248016357,-0.22846342623233795,-0.4050033390522003
1771038403008337000,1.0343369140625,-0.711046576499939,0.031154103577136993,-0.6249146461486816
1771038403027305200,1.05330517578125,-0.6866120100021362,-0.24312418699264526,-0.720820426940918
1771038403046273300,1.072273193359375,-0.5564978122711182,-0.6719512343406677,-0.5253437161445618
1771038403065241300,1.091241455078125,-0.4147771894931793,-1.0195332765579224,-0.21807873249053955
1771038403084209400,1.11020947265625,-0.3090975880622864,-1.1673625707626343,-0.07941242307424545
1771038403103177700,1.129177734375,-0.20341797173023224,-1.2101231813430786,-0.15149445831775665
1771038403122145800,1.148145751953125,-0.11484257876873016,-1.0134246349334717,-0.3909534513950348
1771038403141113900,1.16711376953125,-0.1441640853881836,-0.6548470258712769,-0.7153226733207703
1771038403160082000,1.18608203125,-0.2205221801996231,-0.29504770040512085,-1.1392627954483032
1771038403179050200,1.20505029296875,-0.4098902642726898,-0.10384701192378998,-1.5528182983398438
1771038403198018300,1.224018310546875,-0.5436696410179138,0.056810423731803894,-1.9101741313934326
1771038403216986400,1.242986328125,-0.9260709881782532,0.10323614627122879,-1.8698570728302002
1771038403235954700,1.26195458984375,-1.397047758102417,-0.21258094906806946,-1.1129956245422363
1771038403254922800,1.2809228515625,-2.0268492698669434,-0.8778126835823059,-0.2406807243824005
1771038403273890800,1.299890869140625,-2.841132164001465,-1.2553271055221558,-0.2003636509180069
1771038403292859000,1.31885888671875,-2.475224018096924,-1.9187263250350952,-0.3787361681461334
1771038403311827000,1.337826904296875,-1.7244713306427002,-1.9840887784957886,0.10323614627122879
1771038403330795300,1.356795166015625,-1.4996730089187622,-1.8191553354263306,0.40255987644195557
1771038403349763300,1.375763427734375,-1.525329351425171,-1.4593559503555298,0.3329212963581085
1771038403368731400,1.3947314453125,-1.4996730089187622,-1.7397428750991821,0.44409868121147156
1771038403387699700,1.41369970703125,-1.4379756450653076,-2.8710644245147705,1.092226266860962
1771038403406667800,1.432667724609375,-1.2877029180526733,-3.366475820541382,1.9407174587249756
1771038403425635800,1.4516357421875,-0.9334014058113098,-2.560134172439575,2.011577606201172
1771038403444604200,1.470604248046875,-0.7116574645042419,-1.1026109457015991,1.1160500049591064
1771038403463572200,1.489572265625,-0.554665207862854,0.4868592321872711,-0.033597562462091446
1771038403482540300,1.508540283203125,-0.7055488228797913,1.987753987312317,-0.49113526940345764
1771038403501508400,1.52750830078125,-0.7996219992637634,2.8924448490142822,0.0256563201546669
1771038403520476700,1.5464765625,-0.17287473380565643,3.5057530403137207,0.3384190797805786
1771038403539444700,1.56544482421875,-0.21380266547203064,4.037205219268799,0.516791582107544
1771038403558412800,1.584412841796875,-0.5393936038017273,2.6053383350372314,2.1917827129364014
1771038403577381000,1.603381103515625,-0.8063415288925171,-0.2968802750110626,3.152062177658081
1771038403596349200,1.62234912109375,-0.6414080262184143,-1.2614357471466064,4.536282062530518
1771038403615317200,1.641317138671875,0.12705987691879272,-0.685390293598175,5.062847137451172
1771038403634285300,1.660285400390625,0.9395100474357605,-0.20769402384757996,3.277289628982544
1771038403653253600,1.679253662109375,1.1716386079788208,-0.676227331161499,1.0696241855621338
1771038403672221700,1.6982216796875,0.9395100474357605,-0.45875945687294006,-0.22785256803035736
1771038403691189800,1.717189697265625,0.053145237267017365,0.5106829404830933,-0.5418370366096497
1771038403710158000,1.736157958984375,-0.637742817401886,2.679252862930298,-0.8796452879905701
1771038403729126100,1.755126220703125,-0.5106829404830933,4.639517784118652,-1.4385865926742554
1771038403748094500,1.774094482421875,-0.4153880476951599,5.917447090148926,-1.962708592414856
1771038403767062500,1.7930625,-0.5888736248016357,5.94127082824707,-1.811824917793274
1771038403831052800,1.857052734375,-0.014660755172371864,5.338958263397217,0.28466299176216125
1771038403850021000,1.876021240234375,-0.2663370370864868,5.320632457733154,0.8930842876434326
1771038403868989200,1.8949892578125,-0.6023126840591431,5.36950159072876,1.2156208753585815
1771038403887957200,1.913957275390625,-0.813671886920929,5.866745471954346,0.5021308660507202
1771038403906925600,1.932925537109375,-0.5571087002754211,6.407971382141113,-0.08307760953903198
1771038403925893600,1.9518935546875,0.08063415437936783,6.161182403564453,0.3384190797805786
1771038403944861700,1.97086181640625,0.813671886920929,5.365836143493652,1.158199667930603
1771038403963830000,1.989830078125,1.100778341293335,4.539947032928467,1.3793326616287231
1771038403982798000,2.008798095703125,0.8747583627700806,3.3768606185913086,1.3451242446899414
1771038404001766400,2.027766357421875,0.5705476999282837,2.90282940864563,0.6010909676551819
1771038404020734500,2.046734375,0.5131264328956604,3.1923792362213135,-0.526565432548523
1771038404039702500,2.06570263671875,0.924849271774292,3.341430425643921,-1.2400555610656738
1771038404058670800,2.0846708984375,1.2620465755462646,2.8380777835845947,-1.588248372077942
1771038404077639000,2.103638916015625,1.303585410118103,1.6102395057678223,-1.694538950920105
1771038404096607200,2.122607177734375,1.227838158607483,0.8381064534187317,-1.7519601583480835
1771038404115575300,2.1415751953125,1.2522728443145752,1.6432262659072876,-2.0268492698669434
1771038404134543400,2.16054345703125,1.1557561159133911,2.5656321048736572,-2.3677117824554443
1771038404153511700,2.17951171875,0.8197805285453796,2.2137739658355713,-2.4825544357299805
1771038404172479700,2.198479736328125,0.481361448764801,1.4721840620040894,-2.4911065101623535
1771038404191448000,2.217447998046875,0.17104214429855347,1.120326042175293,-2.4190244674682617
1771038404210416000,2.236416015625,0.003665188793092966,1.1166608333587646,-2.13191819190979
1771038404229384400,2.255384521484375,0.012217295356094837,1.3536763191223145,-1.7702860832214355
1771038404248352500,2.2743525390625,0.012217295356094837,1.546709656715393,-1.255937933921814
1771038404267320800,2.29332080078125,-0.010995565913617611,1.7580687999725342,-1.0115920305252075
1771038404286289000,2.312288818359375,-0.23945899307727814,1.2742639780044556,-0.8759800791740417
1771038404305257000,2.331257080078125,-0.318871408700943,0.7892373204231262,-0.6133082509040833
1771038404324225300,2.350225341796875,-0.07819069176912308,1.0519092082977295,-0.3909534513950348
1771038404343193600,2.369193603515625,0.15638138353824615,1.255937933921814,-0.31031930446624756
1771038404362161700,2.38816162109375,0.12461641430854797,1.147204041481018,-0.3970620930194855
1771038404381129700,2.407129638671875,-0.12950333952903748,0.7550288438796997,-0.5693259835243225
1771038404400098000,2.42609814453125,-0.6010909676551819,0.11239911615848541,-0.8258891701698303
1771038404419066000,2.445066162109375,-1.0274745225906372,-0.35063639283180237,-0.9786053895950317
1771038404438034400,2.464034423828125,-1.0885610580444336,-0.01954767294228077,-1.0140355825424194
1771038404457002800,2.483002685546875,-0.9419534802436829,0.5888736248016357,-1.0702351331710815
1771038404475970800,2.501970703125,-0.8112284541130066,0.647516667842865,-1.0286962985992432
1771038404494939100,2.520939208984375,-0.8258891701698303,0.19669845700263977,-1.1239912509918213
1771038404513907200,2.5399072265625,-0.9480621218681335,-0.27855435013771057,-1.3585633039474487
1771038404532875500,2.55887548828125,-0.9553925395011902,-0.4520399272441864,-1.4440842866897583
1771038404551843600,2.577843505859375,-0.8344413042068481,-0.4520399272441864,-1.3463460206985474
1771038404570812000,2.59681201171875,-0.6035344004631042,-0.17348559200763702,-1.2424989938735962
1771038404589780000,2.615780029296875,-0.3860665261745453,-0.14660754799842834,-1.1704169511795044
1771038404608748300,2.634748291015625,-0.360410213470459,-0.5070177912712097,-1.2168426513671875
1771038404627716600,2.653716552734375,-0.7623592615127563,-1.1704169511795044,-1.2547162771224976
1771038404646684700,2.6726845703125,-1.3365721702575684,-1.4172062873840332,-1.0800089836120605
1771038404665653000,2.691653076171875,-1.7153083086013794,-0.9028581380844116,-0.6181951761245728
1771038404684621000,2.71062109375,-1.8289291858673096,0.11362084746360779,-0.11972949653863907
1771038404703589400,2.72958935546875,-1.7678426504135132,0.665842592716217,0.36651885509490967
1771038404722557400,2.748557373046875,-1.5760310888290405,0.3139844834804535,0.8087849617004395
1771038404741525800,2.76752587890625,-1.6285655498504639,-0.10873392969369888,0.6878337264060974
1771038404760494000,2.786494140625,-1.8240422010421753,-0.45326167345046997,0.5057960152626038
1771038404779462100,2.805462158203125,-1.8387030363082886,-0.3652971386909485,0.5913171172142029
1771038404798430500,2.824430419921875,-1.4770710468292236,0.059864748269319534,0.8991929292678833
1771038404817398500,2.8433984375,-0.8393282294273376,0.3176496922969818,1.1753038167953491
1771038404836366800,2.862366943359375,-0.17592905461788177,0.1893680840730667,1.2082905769348145
1771038404855335200,2.881335205078125,0.3066541254520416,-0.3738492429256439,1.1618647575378418
1771038404874303500,2.900303466796875,0.46914416551589966,-0.9993748068809509,1.1850776672363281
1771038404893271600,2.919271484375,0.3897317349910736,-1.2913681268692017,1.3939933776855469
1771038404912239900,2.938239990234375,0.2822195291519165,-0.9639446139335632,1.7947207689285278
1771038404931208200,2.957208251953125,0.28954991698265076,-0.043982263654470444,2.1368050575256348
1771038404950176500,2.976176513671875,0.24434591829776764,0.7342594861984253,2.3909246921539307
1771038404969144600,2.99514453125,0.10140355676412582,0.8075632452964783,2.455676317214966
1771038404988113000,3.01411279296875,0.06108647957444191,0.6157516837120056,2.3041820526123047
1771038405007081200,3.033081298828125,0.2467893660068512,0.5302306413650513,2.0806055068969727
1771038405026049500,3.052049560546875,0.43493571877479553,0.6108647584915161,1.8997894525527954
1771038405045017600,3.071017578125,0.6181951761245728,0.7648026943206787,1.7556253671646118
1771038405063986000,3.08998583984375,0.6365211009979248,0.720820426940918,1.6395610570907593
1771038405082954200,3.108954345703125,0.360410213470459,0.5986474752426147,1.3781108856201172
1771038405101922600,3.127922607421875,0.10506874322891235,0.7098248600959778,0.8552106618881226
1771038405120890600,3.146890625,-0.17715078592300415,0.8454368710517883,0.34574946761131287
1771038405139859000,3.16585888671875,-0.3078758418560028,0.9688315391540527,0.1233946830034256
1771038405158827300,3.1848271484375,-0.5986474752426147,1.1594213247299194,0.12095122784376144
1771038405177795600,3.203795654296875,-0.6438514590263367,1.1398736238479614,0.27488914132118225
1771038405196764000,3.222763916015625,-0.8918625712394714,1.0054833889007568,0.40805765986442566
1771038405215732200,3.241732177734375,-0.8820887207984924,0.8454368710517883,0.4153880476951599
1771038405234700300,3.2607001953125,-0.7709113359451294,1.2021819353103638,0.26022839546203613
1771038405253668600,3.279668701171875,-0.6841685771942139,1.6151264905929565,-0.06597339361906052
1771038405272637000,3.298636962890625,-0.516791582107544,2.031736373901367,-0.4557051360607147
1771038405291605200,3.317605224609375,-0.15027274191379547,2.2345433235168457,-0.7538071274757385
1771038405310573600,3.336573486328125,0.6682860851287842,1.2119556665420532,-0.7929024696350098
1771038405329542000,3.3555419921875,1.665217399597168,-0.6511818766593933,-0.8295543789863586
1771038405348510200,3.37451025390625,2.2565345764160156,-1.8044945001602173,-1.0800089836120605
1771038405367478500,3.393478515625,2.2394301891326904,-2.4483461380004883,-1.2693769931793213
1771038405386446800,3.41244677734375,2.05617094039917,-2.486219644546509,-1.0555742979049683
1771038405405415200,3.431415283203125,1.8826853036880493,-2.0525057315826416,-0.6536253094673157
1771038405424383500,3.450383544921875,1.6530001163482666,-1.469740629196167,-0.7293725609779358
1771038405443351800,3.469351806640625,1.3952151536941528,-0.9065233469009399,-1.0409135818481445
1771038405462320000,3.488320068359375,1.527161955833435,-0.4557051360607147,-1.5968005657196045
1771038405481288400,3.507288330078125,1.4721840620040894,-0.5729911923408508,-2.3261730670928955
1771038405500256800,3.5262568359375,1.2180644273757935,-0.6365211009979248,-3.031111001968384
1771038405519225000,3.54522509765625,0.8503237962722778,-1.4538581371307373,-3.31333065032959
1771038405538193400,3.564193359375,1.0018181800842285,-1.1545344591140747,-3.1117451190948486
1771038405557161700,3.58316162109375,1.545487880706787,-0.36285367608070374,-2.691470146179199
1771038405576130000,3.602130126953125,1.6322306394577026,-0.0720820426940918,-2.5668537616729736
1771038405595098400,3.621098388671875,1.479514479637146,-0.18325942754745483,-2.5668537616729736
1771038405614066700,3.640066650390625,1.5051708221435547,-0.45448338985443115,-2.4849979877471924
1771038405633035000,3.659034912109375,1.7678426504135132,-0.9688315391540527,-2.3005168437957764
1771038405652003300,3.67800341796875,1.935219645500183,-1.72141695022583,-1.9535455703735352
1771038405670971600,3.6969716796875,1.8570289611816406,-1.7825034856796265,-1.6444480419158936
1771038405689940000,3.71593994140625,1.4782928228378296,-1.2999202013015747,-1.3866630792617798
1771038405708908300,3.734908203125,0.8124501705169678,-1.0775654315948486,-1.1679733991622925
1771038405727876600,3.753876708984375,0.49602219462394714,-0.9407317638397217,-0.8051197528839111
1771038405746845000,3.772844970703125,0.8784235715866089,-0.9810488224029541,-0.21502439677715302
1771038405765813200,3.791813232421875,1.4257583618164062,-1.2363903522491455,0.06230820715427399
1771038405784781800,3.81078173828125,1.4269801378250122,-1.2498292922973633,-0.3591884970664978
1771038405803750100,3.829750244140625,0.9553925395011902,-1.0311397314071655,-1.117882490158081
1771038405822718500,3.848718505859375,0.536339282989502,-0.7904590368270874,-1.4831796884536743
1771038405841686800,3.867686767578125,0.4214966893196106,-0.7232639193534851,-1.138651967048645
1771038405860655000,3.886655029296875,0.6218603253364563,-0.4667007029056549,-0.4202749729156494
1771038405879623400,3.90562353515625,0.7195987105369568,-0.5277871489524841,0.2406807243824005
1771038405898592000,3.924592041015625,0.33108872175216675,-0.7037162184715271,0.4984656572341919
1771038405917560300,3.943560302734375,-0.411722868680954,-0.8100066781044006,0.15271618962287903
1771038405936528600,3.962528564453125,-1.2815942764282227,-0.27366742491722107,-0.19792018830776215
1771038405955497000,3.9814970703125,-1.8228205442428589,0.18692462146282196,-0.1441640853881836
1771038405974465300,4.00046533203125,-1.9901974201202393,0.5778780579566956,0.328645259141922
1771038405993433900,4.019433837890625,-2.0940444469451904,0.6414080262184143,0.8625410795211792
1771038406012402200,4.038402099609375,-2.2589778900146484,0.4972439408302307,1.2522728443145752
1771038406031370500,4.05737060546875,-2.4043638706207275,0.5790998339653015,1.5027273893356323
1771038406050338800,4.0763388671875,-2.670700788497925,0.7232639193534851,1.6053526401519775
1771038406069307400,4.095307373046875,-3.093419313430786,0.7513636946678162,1.6774346828460693
1771038406088275700,4.114275634765625,-3.3292131423950195,0.7538071274757385,1.7800599336624146
1771038406107244000,4.133244140625,-3.3145523071289062,1.3952151536941528,1.7397428750991821
1771038406126212400,4.15221240234375,-3.128849506378174,2.1954479217529297,1.517388105392456
1771038406145181000,4.171180908203125,-2.7366743087768555,2.822195291519165,1.2974767684936523
1771038406164149200,4.190149169921875,-2.212552309036255,2.7867650985717773,1.1068869829177856
1771038406183117600,4.20911767578125,-1.5015056133270264,2.145357131958008,0.7012727856636047
1771038406202086100,4.228086181640625,-0.5974257588386536,1.2974767684936523,0.043982263654470444
1771038406221054500,4.247054443359375,0.26878049969673157,0.5998691916465759,-0.5204567909240723
1771038406240022800,4.266022705078125,0.9016364216804504,0.31154105067253113,-0.7819069027900696
1771038406258991000,4.2849912109375,1.166751742362976,0.21258094906806946,-0.8075632452964783
1771038406277959700,4.303959716796875,1.1068869829177856,0.3494146466255188,-0.7574723362922668
1771038406296928000,4.322927978515625,0.8503237962722778,0.5864301919937134,-0.6597339510917664
1771038406315896300,4.341896240234375,0.5485565662384033,0.8649845123291016,-0.5119046568870544
1771038406334865000,4.360864990234375,0.3750709891319275,1.166751742362976,-0.38240134716033936
1771038406353833200,4.379833251953125,0.36285367608070374,1.4172062873840332,-0.3494146466255188
1771038406382285800,4.408285888671875,0.5106829404830933,1.722638726234436,-0.47525280714035034
1771038406401254100,4.427254150390625,0.4776962697505951,1.8826853036880493,-0.6707295179367065
1771038406420222700,4.44622265625,0.4764745235443115,1.6908737421035767,-0.9028581380844116
1771038406439191000,4.46519091796875,0.6792816519737244,1.497840404510498,-0.972496747970581
1771038406458159600,4.48415966796875,0.8564324378967285,1.3463460206985474,-0.9187406301498413
1771038406477128000,4.5031279296875,0.94439697265625,0.8649845123291016,-0.7367029190063477
1771038406496096300,4.52209619140625,1.0201442241668701,0.7464767694473267,-0.2101374864578247
1771038406515064800,4.54106494140625,0.8051197528839111,1.2388337850570679,0.6621774435043335
1771038406534033200,4.560033203125,0.2614501118659973,1.130099892616272,1.5601485967636108
1771038406553001700,4.579001708984375,0.03787361457943916,0.4935787320137024,2.5045456886291504
1771038406571970000,4.597969970703125,0.3750709891319275,-0.16004657745361328,3.180161952972412
1771038406590938400,4.6169384765625,0.9334014058113098,-0.7269290685653687,3.2449138164520264
1771038406609907000,4.635906982421875,1.5894701480865479,-0.6218603253364563,2.8148648738861084
1771038406628875300,4.654875244140625,2.153909206390381,-0.7281508445739746,2.1807873249053955
1771038406647843800,4.67384375,2.744004487991333,-1.1643083095550537,1.616348147392273
1771038406666812200,4.692812255859375,3.137401580810547,-1.5613703727722168,1.2046253681182861
1771038406685780700,4.71178076171875,3.106858253479004,-2.1856741905212402,0.9883792400360107
1771038406704749000,4.7307490234375,2.8405213356018066,-3.2510223388671875,1.0739002227783203
1771038406723717400,4.74971728515625,2.930929183959961,-3.411068916320801,1.4159845113754272
1771038406742686000,4.76868603515625,3.299891471862793,-2.344499111175537,1.6481131315231323
1771038406761654300,4.787654296875,2.9443681240081787,-1.6578869819641113,1.6346741914749146
1771038406780622800,4.806622802734375,2.20155668258667,-1.6627739667892456,1.617569923400879
1771038406799591200,4.825591064453125,1.9596542119979858,-2.6926920413970947,2.1478004455566406
1771038406818559700,4.844559814453125,1.6420044898986816,-2.8295257091522217,2.392146587371826
1771038406837528000,4.863528076171875,1.362228512763977,-1.9291110038757324,2.079383611679077
1771038406856496400,4.882496337890625,1.352454662322998,-1.0445787906646729,1.7067562341690063
1771038406875465000,4.90146484375,1.0103703737258911,-0.8087849617004395,1.351232886314392
1771038406894433500,4.92043359375,0.8356630206108093,-0.7000510096549988,0.9040798544883728
1771038406913401900,4.93940185546875,0.8197805285453796,-1.033583164215088,0.6365211009979248
1771038406932370200,4.9583701171875,0.6866120100021362,-1.2986985445022583,0.5302306413650513
1771038406951338800,4.9773388671875,0.27977606654167175,-1.128878116607666,0.6047561168670654
1771038406970307000,4.99630712890625,-0.30054548382759094,-0.7244856357574463,0.7916807532310486
1771038406989275600,5.015275634765625,-0.4972439408302307,-0.2419024556875229,0.8772017955780029
1771038407008244000,5.034243896484375,-0.23945899307727814,0.020769402384757996,0.720820426940918
1771038407027212500,5.053212646484375,0.3298669755458832,-0.26878049969673157,0.23823726177215576
1771038407046180900,5.072180908203125,1.0018181800842285,-0.8124501705169678,-0.22235478460788727
1771038407065149400,5.0911494140625,1.4672971963882446,-1.2437206506729126,-0.471587598323822
1771038407084117800,5.11011767578125,1.703091025352478,-1.3548980951309204,-0.6695078015327454
1771038407103086300,5.12908642578125,1.7788382768630981,-1.3280199766159058,-0.8833104968070984
1771038407122054700,5.1480546875,1.7385212182998657,-1.3084723949432373,-1.0641264915466309
1771038407141023200,5.167023193359375,1.711643099784851,-1.2889246940612793,-1.2205078601837158
1771038407159991600,5.185991455078125,1.9523237943649292,-1.3561197519302368,-1.3671153783798218
1771038407178960100,5.204960205078125,2.2931864261627197,-1.497840404510498,-1.5015056133270264
1771038407197928400,5.223928466796875,2.4825544357299805,-1.5491530895233154,-1.6126830577850342
1771038407216897000,5.24289697265625,2.360381603240967,-1.5296053886413574,-1.693317174911499
1771038407235865300,5.261865234375,1.9535455703735352,-1.3768892288208008,-1.6322306394577026
1771038407254834000,5.280833984375,1.4465278387069702,-0.9908226728439331,-1.4049890041351318
1771038407273802200,5.29980224609375,0.9663881063461304,-0.536339282989502,-1.072678565979004
1771038407292770800,5.318770751953125,0.5571087002754211,-0.2712239623069763,-0.768467903137207
1771038407311739100,5.3377392578125,0.2822195291519165,-0.22357651591300964,-0.5436696410179138
1771038407330707700,5.356707763671875,0.11362084746360779,-0.43982264399528503,-0.3237583339214325
1771038407349676000,5.375676025390625,-0.034208428114652634,-0.7660244107246399,-0.10018182545900345
1771038407368644600,5.39464453125,-0.2101374864578247,-0.758694052696228,-0.043982263654470444
1771038407387613000,5.413613037109375,-0.27366742491722107,-0.5558869242668152,-0.13194678723812103
1771038407406581500,5.43258154296875,-0.20769402384757996,-0.4972439408302307,-0.1795942485332489
1771038407425549800,5.4515498046875,-0.09407317638397217,-0.7696896195411682,-0.07574722915887833
1771038407444518400,5.470518310546875,-0.3237583339214325,-0.7024945020675659,-0.040317077189683914
1771038407463486700,5.48948681640625,-0.9615011811256409,-0.10873392969369888,-0.10018182545900345
1771038407482455300,5.508455322265625,-1.4208714962005615,0.5766563415527344,-0.056199558079242706
1771038407501423600,5.527423583984375,-1.3548980951309204,1.1325433254241943,0.11117739230394363
1771038407520392200,5.54639208984375,-0.8344413042068481,0.9798271059989929,0.2419024556875229
1771038407539360500,5.565360595703125,-0.10751219838857651,0.19303326308727264,0.10506874322891235
1771038407558329000,5.5843291015625,0.7916807532310486,-0.5632173418998718,-0.18570289015769958
1771038407577297400,5.60329736328125,1.8826853036880493,-1.0360267162322998,-0.4667007029056549
1771038407596266000,5.622265869140625,2.503323793411255,-1.3463460206985474,-0.7147117853164673
1771038407615234300,5.641234375,2.550971269607544,-1.2986985445022583,-0.8210022449493408
1771038407634202600,5.66020263671875,2.361603260040283,-0.7696896195411682,-0.6780598759651184
1771038407653171200,5.679171142578125,2.1306962966918945,-0.1490510106086731,-0.2932150959968567
1771038407672139800,5.698139892578125,1.9242240190505981,0.2809978127479553,0.001221729558892548
1771038407691108000,5.717108154296875,1.7996076345443726,0.4056142270565033,-0.03543015569448471
1771038407710076700,5.73607666015625,1.8423681259155273,0.1380554437637329,-0.3237583339214325
1771038407729045000,5.755044921875,1.9486587047576904,-0.07574722915887833,-0.6682860851287842
1771038407748013600,5.774013671875,2.0378448963165283,-0.12950333952903748,-0.8845322132110596
1771038407766982000,5.79298193359375,1.832594394683838,-0.2370155304670334,-0.8381064534187317
1771038407785950500,5.811950439453125,1.2156208753585815,-0.1637117564678192,-0.675616443157196
1771038407804918800,5.830918701171875,0.5106829404830933,0.001221729558892548,-0.45326167345046997
1771038407823887400,5.849887451171875,-0.08674279600381851,-0.20769402384757996,-0.370184063911438
1771038407842855700,5.868855712890625,-0.42271843552589417,-0.6731730103492737,-0.35185810923576355
1771038407861824300,5.88782421875,-0.27366742491722107,-1.0103703737258911,-0.17837251722812653
1771038407880792600,5.90679248046875,0.18692462146282196,-0.8930842876434326,0.001221729558892548
1771038407899761200,5.92576123046875,0.7293725609779358,-0.5729911923408508,-0.003665188793092966
1771038407918729500,5.9447294921875,1.5198315382003784,-1.1643083095550537,0.043982263654470444
1771038407937698000,5.963697998046875,2.3518292903900146,-1.7825034856796265,-0.2211330533027649
1771038407956666400,5.982666259765625,2.6816964149475098,-1.536935806274414,-0.8210022449493408
1771038407975635000,6.001635009765625,2.3506076335906982,-1.0690133571624756,-1.1911863088607788
1771038407994603300,6.020603271484375,1.6713260412216187,-0.46059203147888184,-0.934623122215271
1771038408013571600,6.039571533203125,1.237612009048462,0.1795942485332489,-0.2565632164478302
1771038408032540200,6.0585400390625,1.2351685762405396,0.5815432667732239,0.2260199636220932
1771038408051508500,6.077508544921875,1.2986985445022583,0.24312418699264526,0.26022839546203613
1771038408070477000,6.09647705078125,1.117882490158081,-0.17104214429855347,0.04886918142437935
1771038408089445400,6.1154453125,0.3970620930194855,-0.2822195291519165,0.018325943499803543
1771038408108414000,6.1344140625,-0.5583304166793823,0.24434591829776764,0.46059203147888184
1771038408127382300,6.15338232421875,-1.351232886314392,1.0775654315948486,0.9712749719619751
1771038408146350600,6.1723505859375,-1.8619158267974854,1.8423681259155273,1.2082905769348145
1771038408165319200,6.191319091796875,-1.9669846296310425,2.4568982124328613,1.3255765438079834
1771038408184287700,6.210287841796875,-1.535714030265808,2.880838394165039,1.2877029180526733
1771038408203256000,6.229256103515625,-0.8735366463661194,2.9834635257720947,0.9089667797088623
1771038408222224600,6.248224609375,-0.3029889166355133,2.4287984371185303,0.34086254239082336
1771038408241193000,6.26719287109375,0.007330377586185932,1.3206896781921387,-0.1185077652335167
1771038408260161300,6.286161376953125,-0.16615521907806396,0.6719512343406677,-0.09651663154363632
1771038408279129900,6.3051298828125,-0.7867938280105591,0.924849271774292,0.39217519760131836
1771038408298098200,6.32409814453125,-1.6102395057678223,1.887572169303894,0.8087849617004395
1771038408317066800,6.343066650390625,-2.51431941986084,2.891833782196045,1.148425817489624
1771038408336035000,6.36203515625,-3.2925610542297363,3.2424702644348145,1.8753548860549927
1771038408355003600,6.381003662109375,-3.8570001125335693,2.8319690227508545,3.056767463684082
1771038408373972000,6.399971923828125,-4.2516188621521,2.1368050575256348,4.378678798675537
1771038408392940300,6.418940185546875,-4.167319297790527,1.8228205442428589,5.381718635559082
1771038408411908900,6.437908935546875,-3.7873616218566895,2.0476186275482178,6.228377342224121
1771038408430877200,6.456877197265625,-3.523468017578125,2.305403709411621,7.054266452789307
1771038408449845800,6.475845703125,-2.959028959274292,2.25531268119812,7.723774433135986
1771038408468814000,6.49481396484375,-2.031736373901367,1.7678426504135132,7.954680919647217
1771038408487782700,6.51378271484375,-1.3060288429260254,1.5540399551391602,7.450106620788574
1771038408506751000,6.5327509765625,-1.043357014656067,1.8949025869369507,6.1538519859313965
1771038408525719600,6.551719482421875,-0.9944878816604614,2.489884853363037,4.25772762298584
1771038408544687900,6.57068798828125,-0.7574723362922668,2.858847141265869,2.1807873249053955
1771038408563656200,6.58965625,-0.36163195967674255,2.880838394165039,0.44837474822998047
1771038408582624800,6.608624755859375,-0.0256563201546669,2.8209736347198486,-0.9199623465538025
1771038408601593000,6.627593017578125,0.277332603931427,2.492328405380249,-2.0830488204956055
1771038408620561700,6.646561767578125,0.637742817401886,1.8167119026184082,-2.6535966396331787
1771038408639530000,6.665530029296875,0.8051197528839111,1.1948515176773071,-2.4520111083984375
1771038408658498600,6.68449853515625,0.6145299673080444,0.9505056142807007,-2.6364924907684326
1771038408677467000,6.703466796875,0.18081597983837128,0.833219587802887,-3.2644612789154053
1771038408696435200,6.722435302734375,-0.36285367608070374,1.102000117301941,-3.3487606048583984
1771038408715403800,6.74140380859375,-0.9309579133987427,1.5613703727722168,-2.872286081314087
1771038408734372000,6.7603720703125,-1.247385859489441,1.7544035911560059,-2.494771718978882
1771038408753340700,6.779340576171875,-1.1447606086730957,1.461188554763794,-2.780656576156616
1771038408772309000,6.79830908203125,-1.138651967048645,0.9517273306846619,-3.0604324340820312
1771038408791277300,6.81727734375,-1.3402373790740967,0.5595521330833435,-2.9663593769073486
1771038408810246000,6.836245849609375,-1.4941751956939697,0.5827649831771851,-3.1862707138061523
1771038408829214200,6.855214111328125,-1.4245367050170898,0.5607738494873047,-3.814239740371704
1771038408848182800,6.874182861328125,-1.0665699243545532,0.2968802750110626,-4.6230244636535645
1771038408867151000,6.893151123046875,-0.516791582107544,-0.07086031138896942,-5.261989116668701
1771038408886119700,6.91211962890625,-0.2968802750110626,-0.277332603931427,-5.4391398429870605
1771038408905088000,6.931087890625,-0.7012727856636047,-0.43004879355430603,-4.833162307739258
1771038408924056300,6.950056396484375,-1.0152572393417358,-0.07941242307424545,-3.8484480381011963
1771038408943025000,6.96902490234375,-0.7635809779167175,0.2516762912273407,-3.4245078563690186
1771038408961993200,6.9879931640625,-0.46547895669937134,0.34086254239082336,-3.4526076316833496
1771038408980961500,7.00696142578125,-0.3249800503253937,0.2675587832927704,-3.75559663772583
1771038408999930000,7.02593017578125,-0.2809978127479553,0.2101374864578247,-4.158767223358154
1771038409018898400,7.0448984375,-0.34697118401527405,0.21746785938739777,-4.34324836730957
1771038409037867000,7.063866943359375,-0.7391464114189148,0.9602794051170349,-3.968177556991577
1771038409056835300,7.08283544921875,-1.5039490461349487,1.6016874313354492,-3.026224136352539
1771038409075803600,7.1018037109375,-2.164904832839966,1.9364413022994995,-1.8069380521774292
1771038409094772200,7.120772216796875,-2.5277583599090576,1.8668028116226196,-0.8869756460189819
1771038409113740500,7.139740478515625,-2.9797983169555664,1.7079778909683228,-0.34208428859710693
1771038409132709000,7.158709228515625,-3.4379470348358154,1.3988803625106812,0.040317077189683914
1771038409151677400,7.177677490234375,-3.629758596420288,1.2131774425506592,0.44470956921577454
1771038409170645800,7.196645751953125,-3.7910268306732178,0.9663881063461304,0.8991929292678833
1771038409189614000,7.215614013671875,-3.9803948402404785,0.6426297426223755,1.2693769931793213
1771038409208582700,7.234582763671875,-4.07446813583374,0.31154105067253113,1.5589269399642944
1771038409227551000,7.253551025390625,-4.107454776763916,-0.18570289015769958,1.849698543548584
1771038409246519300,7.272519287109375,-4.09035062789917,-1.0079269409179688,2.2149956226348877
1771038409265488000,7.29148779296875,-3.9474081993103027,-1.848476767539978,2.5607452392578125
1771038409284456200,7.310456298828125,-3.842339515686035,-2.2589778900146484,2.9712462425231934
1771038409303424800,7.3294248046875,-3.9180867671966553,-2.2259912490844727,3.6053240299224854
1771038409322393000,7.34839306640625,-4.0304856300354,-2.310290575027466,4.434878349304199
1771038409341361400,7.367361328125,-3.85333514213562,-2.6035056114196777,5.098277568817139
1771038409360330000,7.386330078125,-3.5552330017089844,-2.9969027042388916,5.406153202056885
1771038409379298300,7.40529833984375,-3.469712018966675,-3.490481376647949,5.474570274353027
1771038409398266600,7.4242666015625,-3.3292131423950195,-3.5246896743774414,5.6065168380737305
1771038409417235200,7.443235107421875,-3.2229225635528564,-3.1691665649414062,5.9693708419799805
1771038409436203500,7.46220361328125,-3.098306179046631,-2.763552188873291,6.288241863250732
1771038409455171800,7.481171875,-2.7342307567596436,-2.218660831451416,6.098874092102051
1771038409474140200,7.50014013671875,-2.1368050575256348,-2.006079912185669,5.513665676116943
1771038409493108700,7.519108642578125,-1.517388105392456,-1.7446298599243164,4.734201908111572
1771038409512077000,7.5380771484375,-0.915075421333313,-1.3891065120697021,3.7812530994415283
1771038409531045400,7.55704541015625,-0.4972439408302307,-1.2424989938735962,2.66581392288208
1771038409550014000,7.576013916015625,-0.3494146466255188,-1.166751742362976,1.6994258165359497
1771038409568982300,7.594982177734375,-0.2211330533027649,-0.9957095980644226,1.4282019138336182
1771038409587950600,7.61395068359375,-0.18570289015769958,-0.8063415288925171,1.390328288078308
1771038409606919200,7.632919189453125,-0.3848448097705841,-0.5595521330833435,1.1789690256118774
1771038409625887500,7.651887451171875,-0.5070177912712097,-0.2467893660068512,0.8185588121414185
1771038409644855800,7.670855712890625,-0.5045742988586426,0.002443459117785096,0.38728827238082886
1771038409663824100,7.68982421875,-0.45326167345046997,0.07452550530433655,0.034208428114652634
1771038409682792700,7.708792724609375,-0.33597561717033386,0.06475166976451874,-0.2101374864578247
1771038409701761000,7.727760986328125,-0.2419024556875229,0.050090912729501724,-0.49968740344047546
1771038409720729300,7.746729248046875,-0.15149445831775665,0.14660754799842834,-1.092226266860962
1771038409739697700,7.76569775390625,-0.028099779039621353,0.2211330533027649,-1.7250821590423584
1771038409758666200,7.784666259765625,0.09162971377372742,0.17715078592300415,-2.1441354751586914
1771038409777634600,7.803634521484375,0.11239911615848541,0.05742128938436508,-2.2821907997131348
1771038409796603000,7.822602783203125,0.014660755172371864,0.20158538222312927,-2.2333216667175293
1771038409815571200,7.8415712890625,-0.001221729558892548,0.5277871489524841,-2.149022340774536
1771038409834539800,7.860539794921875,0.16737695038318634,0.7794634699821472,-2.2174391746520996
1771038409853508000,7.879508056640625,0.39828383922576904,0.7770199775695801,-2.34694242477417
1771038409872476400,7.898476318359375,0.5668824911117554,0.46425724029541016,-2.35305118560791
1771038409891444700,7.91744482421875,0.7318159937858582,0.21502439677715302,-2.2724170684814453
1771038409910413000,7.9364130859375,0.758694052696228,0.13927717506885529,-2.361603260040283
1771038409929381600,7.955381591796875,0.6145299673080444,0.20280711352825165,-2.5717406272888184
1771038409948350000,7.974349853515625,0.6511818766593933,0.370184063911438,-2.631605386734009
1771038409967318300,7.993318359375,0.9236275553703308,0.5326740741729736,-2.3567163944244385
1771038409986286600,8.01228662109375,1.130099892616272,0.8588758707046509,-2.2956297397613525
1771038410005255000,8.0312548828125,1.082452416419983,1.3927717208862305,-2.726900339126587
1771038410024223500,8.050223388671874,0.9932661056518555,1.6297872066497803,-3.196044445037842
1771038410043191800,8.06919189453125,1.0103703737258911,1.5784746408462524,-3.2070400714874268
1771038410062160100,8.08816015625,1.2608249187469482,1.5919135808944702,-2.796539068222046
1771038410081128400,8.10712841796875,1.237612009048462,1.5833615064620972,-2.13191819190979
1771038410100096800,8.1260966796875,0.7330377101898193,1.9474369287490845,-1.7702860832214355
1771038410119065000,8.145065185546875,0.2211330533027649,2.3457207679748535,-1.9657628536224365
1771038410138033700,8.16403369140625,0.08918625861406326,2.0305144786834717,-2.296851634979248
1771038410157002000,8.183001953125,0.4324922561645508,1.1740821599960327,-2.4691154956817627
1771038410175970300,8.20197021484375,1.0470222234725952,0.6157516837120056,-2.682918071746826
1771038410194938600,8.220938720703124,1.545487880706787,0.7574723362922668,-2.9040510654449463
1771038410213907000,8.239906982421875,1.7177517414093018,1.2119556665420532,-3.0127851963043213
1771038410232875300,8.258875244140626,1.8741331100463867,1.5968005657196045,-3.143510103225708
1771038410251843600,8.277843505859375,2.2369868755340576,1.4624103307724,-3.1227407455444336
1771038410270812000,8.29681201171875,2.7696609497070312,0.9688315391540527,-3.031111001968384
1771038410289780500,8.315780517578125,2.956585645675659,0.9480621218681335,-2.928485870361328
1771038410308748800,8.334748779296875,2.528980255126953,1.1789690256118774,-2.8454082012176514
1771038410327717000,8.353717041015624,1.9095633029937744,1.3280199766159058,-2.52042818069458
1771038410346685400,8.372685546875,1.3744457960128784,1.6615521907806396,-2.107483386993408
1771038410365653800,8.39165380859375,0.9517273306846619,1.925445795059204,-1.7910555601119995
1771038410384622000,8.4106220703125,0.6426297426223755,1.8460333347320557,-1.692095398902893
1771038410403590400,8.42959033203125,0.4520399272441864,1.5845832824707031,-1.8338160514831543
1771038410422558700,8.448558837890625,0.39339691400527954,1.2131774425506592,-2.221104383468628
1771038410441527000,8.467527099609375,0.38728827238082886,0.8723149299621582,-2.702465772628784
1771038410460495400,8.486495361328124,0.5729911923408508,0.7293725609779358,-2.9797983169555664
1771038410479463700,8.505463623046875,0.7892373204231262,0.7855721116065979,-2.8368561267852783
1771038410498432000,8.524431884765624,0.6218603253364563,1.1606431007385254,-2.2088871002197266
1771038410517400600,8.543400634765625,0.1893680840730667,1.8228205442428589,-1.480736255645752
1771038410536368600,8.56236865234375,-0.1441640853881836,2.416581153869629,-0.943175196647644
1771038410555337000,8.5813369140625,-0.4862483739852905,2.8466298580169678,-0.5595521330833435
1771038410574305300,8.60030517578125,-1.1325433254241943,3.0030112266540527,-0.4202749729156494
1771038410593273900,8.61927392578125,-1.7690644264221191,2.3127341270446777,-0.740368127822876
1771038410612242200,8.6382421875,-1.8289291858673096,1.1814124584197998,-1.37078058719635
1771038410631210200,8.657210205078124,-1.4037672281265259,0.1905898153781891,-2.0182971954345703
1771038410650178600,8.676178466796875,-1.0751219987869263,0.010995565913617611,-2.349385976791382
1771038410669147000,8.69514697265625,-1.1875211000442505,0.4972439408302307,-2.377485752105713
1771038410688115200,8.714115234375,-1.497840404510498,1.0360267162322998,-2.2626430988311768
1771038410707083500,8.73308349609375,-1.7189735174179077,1.3451242446899414,-2.1636829376220703
1771038410726051800,8.7520517578125,-1.7482949495315552,1.380554437637329,-2.0744967460632324
1771038410745020200,8.771020263671875,-1.6346741914749146,1.3500111103057861,-2.003636360168457
1771038410763988500,8.789988525390624,-1.5112794637680054,1.1557561159133911,-2.014631986618042
1771038410782956800,8.808956787109375,-1.362228512763977,0.851545512676239,-2.199113130569458
1771038410801925000,8.827925048828124,-1.1129956245422363,0.5729911923408508,-2.539975643157959
1771038410820893400,8.8468935546875,-0.8148936033248901,0.18814635276794434,-2.737895965576172
1771038410839861800,8.86586181640625,-0.4886918365955353,-0.35674503445625305,-2.7562217712402344
1771038410858830000,8.884830078125,-0.16004657745361328,-1.0360267162322998,-2.6841397285461426
1771038410877798400,8.90379833984375,0.15760311484336853,-1.6090178489685059,-2.492328405380249
1771038410896766700,8.9227666015625,0.47036588191986084,-2.0292928218841553,-2.1807873249053955
1771038410915735000,8.941735107421875,0.7134900689125061,-2.3958115577697754,-1.7556253671646118
1771038410934703400,8.960703369140624,0.8930842876434326,-2.841742992401123,-1.2156208753585815
1771038410953671700,8.979671630859375,1.100778341293335,-3.0531022548675537,-0.3640754222869873
1771038410972639700,8.9986396484375,1.1875211000442505,-2.6841397285461426,0.9004147052764893
1771038410991608000,9.017608154296875,0.8002328872680664,-2.1331398487091064,2.8124215602874756
1771038411010576400,9.036576416015626,0.19792018830776215,-1.684765100479126,4.987100124359131
1771038411029544700,9.055544677734375,0.06230820715427399,-1.4147628545761108,6.675530433654785
1771038411048513000,9.074512939453125,0.5021308660507202,-0.9395100474357605,7.588162422180176
1771038411067481300,9.0934814453125,1.071456789970398,-0.3127627670764923,7.748208999633789
1771038411086449700,9.11244970703125,1.6016874313354492,0.19669845700263977,7.4366679191589355
1771038411105417700,9.131417724609374,2.162461280822754,0.13561198115348816,6.787929534912109
1771038411124386000,9.150385986328125,2.7476696968078613,-0.277332603931427,5.855749607086182
1771038411143354400,9.169354248046876,3.360978126525879,-0.5571087002754211,4.783071041107178
1771038411162322700,9.18832275390625,3.682292938232422,-0.5986474752426147,3.8789913654327393
1771038411181291000,9.207291015625,3.5784459114074707,-0.4520399272441864,3.2791221141815186
1771038411200259300,9.22625927734375,3.266904830932617,0.08918625861406326,2.889390468597412
1771038411219227600,9.2452275390625,2.9602506160736084,1.0299180746078491,2.629162073135376
1771038411238195700,9.26419580078125,2.776991367340088,1.8252639770507812,2.506989002227783
1771038411257164000,9.2831640625,2.8063127994537354,2.210108757019043,2.4605634212493896
1771038411276132400,9.30213232421875,3.0775368213653564,2.310290575027466,2.408029079437256
1771038411295100700,9.3211005859375,3.475820541381836,2.2259912490844727,2.2809691429138184
1771038411314069000,9.340069091796876,3.825235366821289,1.897346019744873,2.0268492698669434
1771038411333037000,9.359037109375,4.2039713859558105,1.441640853881836,1.598022222518921
1771038411352005400,9.37800537109375,4.718319416046143,0.9822705388069153,1.1264346837997437
1771038411370973700,9.3969736328125,4.940674304962158,0.4508182108402252,0.554665207862854
1771038411389942000,9.41594189453125,4.710988998413086,-0.22357651591300964,-0.25045454502105713
1771038411408910000,9.43491015625,4.190532207489014,-0.1747073233127594,-0.8723149299621582
1771038411427878400,9.45387841796875,3.4941465854644775,0.9419534802436829,-0.5192350745201111
1771038411446846700,9.4728466796875,3.015228509902954,1.7458515167236328,1.0067051649093628
1771038411465815000,9.49181494140625,2.299294948577881,2.9407031536102295,1.8008294105529785
1771038411484783000,9.510783203125,1.100778341293335,3.9669559001922607,1.1850776672363281
1771038411503751400,9.52975146484375,0.4105011224746704,4.151436805725098,0.24923282861709595
1771038411522719700,9.5487197265625,0.38728827238082886,4.064694404602051,-0.5351175665855408
1771038411541688000,9.56768798828125,0.8087849617004395,4.091572284698486,-1.147204041481018
1771038411560656100,9.58665625,1.546709656715393,4.3799004554748535,-1.9743149280548096
1771038411579624400,9.60562451171875,2.1587960720062256,4.660898208618164,-3.0054547786712646
1771038411608076800,9.634076904296874,2.897942543029785,4.214966773986816,-4.059807300567627
1771038411627045000,9.653045166015625,3.3463172912597656,3.60410213470459,-4.288270950317383
1771038411646013200,9.67201318359375,3.453829526901245,2.9749114513397217,-4.254062175750732
1771038411664981500,9.6909814453125,3.1887142658233643,2.9712462425231934,-4.131889343261719
1771038411683949800,9.70994970703125,2.553414821624756,3.5674502849578857,-3.810574531555176
1771038411702918000,9.72891796875,1.4001020193099976,4.357909202575684,-2.872286081314087
1771038411721886200,9.74788623046875,-0.37629270553588867,4.717097759246826,-1.469740629196167
1771038411740854500,9.7668544921875,-2.0683882236480713,4.244288444519043,-0.13072505593299866
1771038411759822600,9.785822509765625,-3.423286199569702,3.0274457931518555,0.5681042671203613
1771038411778791000,9.804791015625,-4.103789806365967,1.497840404510498,0.4324922561645508
1771038411797759000,9.823759033203125,-3.84722638130188,0.7354812026023865,-0.4312705397605896
1771038411816727300,9.842727294921875,-3.2449138164520264,0.40805765986442566,-1.616348147392273
1771038411835695600,9.861695556640624,-2.802647590637207,0.010995565913617611,-2.1795654296875
1771038411854663700,9.88066357421875,-2.5277583599090576,-0.18203771114349365,-1.8362594842910767
1771038411873632000,9.899632080078124,-2.6328272819519043,-0.07452550530433655,-1.4758492708206177
1771038411892600300,9.918600341796875,-3.1593925952911377,0.15515965223312378,-1.4648537635803223
1771038411911568400,9.937568359375,-3.769035577774048,0.14538581669330597,-1.4269801378250122
1771038411930536700,9.95653662109375,-3.9351909160614014,0.06719512492418289,-1.3292417526245117
1771038411949504800,9.9755048828125,-3.8765478134155273,-0.2467893660068512,-1.2461642026901245
1771038411968473000,9.99447314453125,-3.968177556991577,-1.0018181800842285,-0.8991929292678833
1771038411987441400,10.01344140625,-4.476417064666748,-1.5638138055801392,-0.31520622968673706
1771038412006409500,10.032409423828126,-5.414705276489258,-1.6114612817764282,0.10140355676412582
1771038412025377500,10.05137744140625,-6.506931781768799,-1.5625921487808228,0.46059203147888184
1771038412044345900,10.070345947265626,-7.045714378356934,-1.2241730690002441,1.2901464700698853
1771038412063314200,10.089314208984375,-6.908880710601807,-0.20280711352825165,2.8820600509643555
1771038412082282200,10.1082822265625,-6.11842155456543,0.28954991698265076,4.2711663246154785
1771038412101250600,10.12725048828125,-5.009091377258301,-0.01954767294228077,4.613250732421875
1771038412120218600,10.146218505859375,-3.690845012664795,-0.6145299673080444,4.118450164794922
1771038412139187000,10.16518701171875,-2.42268967628479,-1.092226266860962,3.2876741886138916
1771038412158155300,10.1841552734375,-1.5039490461349487,-1.2143992185592651,2.6951353549957275
1771038412177123300,10.203123291015626,-0.9676098227500916,-1.3365721702575684,2.5949535369873047
1771038412196091600,10.222091552734375,-0.6401863098144531,-1.4489712715148926,2.682918071746826
1771038412215059700,10.241059814453125,-0.3750709891319275,-1.3536763191223145,2.7794346809387207
1771038412234028000,10.260028076171874,-0.12095122784376144,-1.1691951751708984,2.9162683486938477
1771038412252996000,10.27899609375,0.1490510106086731,-1.0396918058395386,3.0408849716186523
1771038412271964400,10.29796435546875,0.47525280714035034,-0.8112284541130066,2.8759512901306152
1771038412290932500,10.316932373046875,0.7867938280105591,-0.5754346251487732,2.620609998703003
1771038412309900800,10.33590087890625,0.9468404054641724,-0.2260199636220932,2.511875867843628
1771038412328868900,10.354868896484374,0.8429933786392212,0.11362084746360779,2.349385976791382
1771038412347837200,10.373837158203125,0.4105011224746704,0.3909534513950348,1.9987496137619019
1771038412366805200,10.39280517578125,-0.0513126403093338,0.7831286191940308,1.6517783403396606
1771038412385773300,10.411773193359375,-0.26511532068252563,1.1826342344284058,1.5406010150909424
1771038412404741600,10.43074169921875,-0.370184063911438,1.546709656715393,1.5772528648376465
1771038412423710000,10.4497099609375,-0.411722868680954,1.7653992176055908,1.6236785650253296
1771038412442678000,10.468677978515625,-0.09162971377372742,1.9095633029937744,1.4563016891479492
1771038412461646000,10.48764599609375,0.6902772188186646,2.1551308631896973,1.0653481483459473
1771038412480614400,10.506614501953125,1.469740629196167,2.1868958473205566,0.41294458508491516
1771038412499582500,10.52558251953125,2.0830488204956055,1.9669846296310425,-0.22724169492721558
1771038412518550800,10.54455078125,2.3823726177215576,1.6884303092956543,-0.5094612240791321
1771038412537518800,10.563518798828126,2.322507858276367,1.5479313135147095,-0.7220421433448792
1771038412556487000,10.58248681640625,2.0696098804473877,1.5662572383880615,-1.2632683515548706
1771038412575455200,10.601455322265625,1.8826853036880493,1.7434080839157104,-1.6774346828460693
1771038412594423300,10.62042333984375,1.598022222518921,1.8533637523651123,-1.4953969717025757
1771038412613391600,10.6393916015625,0.9749401807785034,1.8289291858673096,-0.8686497211456299
1771038412632359700,10.658359619140626,0.35063639283180237,1.9730932712554932,-0.5241219997406006
1771038412651327700,10.67732763671875,-0.004886918235570192,2.101374864578247,-0.6133082509040833
1771038412670296000,10.696296142578126,-0.16737695038318634,1.7996076345443726,-0.9932661056518555
1771038412689264000,10.71526416015625,-0.12950333952903748,1.3646719455718994,-1.5015056133270264
1771038412708232400,10.734232421875,-0.08552107214927673,1.4147628545761108,-1.64566969871521
1771038412727200500,10.753200439453124,-0.11972949653863907,1.6420044898986816,-1.3304635286331177
1771038412746168600,10.77216845703125,-0.18081597983837128,1.9095633029937744,-0.9419534802436829
1771038412765137000,10.791136962890626,-0.16004657745361328,1.7629557847976685,-0.8710931539535522
1771038412784105000,10.81010498046875,0.31520622968673706,1.102000117301941,-1.2339468002319336
1771038412803073000,10.829072998046875,0.9993748068809509,0.5754346251487732,-1.6249003410339355
1771038412822041300,10.848041259765624,0.9468404054641724,-0.07574722915887833,-1.9083415269851685
1771038412841009400,10.867009521484375,0.056199558079242706,-0.34574946761131287,-2.0500621795654297
1771038412859977500,10.8859775390625,-0.9456186890602112,-0.3225366175174713,-1.7238603830337524
1771038412878945800,10.90494580078125,-1.6200133562088013,-0.2052505612373352,-1.156977891921997
1771038412897913900,10.923913818359376,-2.051283836364746,0.21868959069252014,-0.851545512676239
1771038412916882000,10.9428818359375,-2.544862747192383,0.7195987105369568,-0.8381064534187317
1771038412935850200,10.961850341796875,-3.1752750873565674,1.1814124584197998,-0.8002328872680664
1771038412954818300,10.980818359375,-3.7397141456604004,1.654221773147583,-0.4276053309440613
1771038412973786400,10.999786376953125,-3.870439291000366,1.9987496137619019,0.3494146466255188
1771038412992754700,11.018754638671876,-3.540572166442871,2.2650866508483887,1.2901464700698853
1771038413011722800,11.03772265625,-3.0604324340820312,2.5436408519744873,1.9230023622512817
1771038413030690800,11.05669091796875,-2.572962522506714,2.4483461380004883,2.081827163696289
1771038413049659000,11.075658935546874,-1.9853105545043945,1.8936808109283447,1.64566969871521
1771038413068627200,11.094627197265625,-1.2877029180526733,0.9016364216804504,0.6914989352226257
1771038413087595300,11.11359521484375,-0.6487383842468262,-0.3591884970664978,-0.4569268524646759
1771038413106563300,11.132563232421875,-0.14660754799842834,-1.5931353569030762,-1.4648537635803223
1771038413125531600,11.15153173828125,0.030543239787220955,-2.6059491634368896,-2.0463969707489014
1771038413144499700,11.170499755859375,-0.22846342623233795,-3.2925610542297363,-2.149022340774536
1771038413163467800,11.1894677734375,-0.9553925395011902,-3.475820541381836,-1.7140865325927734
1771038413182435800,11.208435791015624,-2.1355831623077393,-2.5155410766601562,-0.7232639193534851
1771038413201404200,11.227404052734375,-3.503920316696167,-0.5681042671203613,0.7892373204231262
1771038413220372200,11.246372314453126,-4.842936038970947,1.2095122337341309,2.671922445297241
1771038413239340300,11.26534033203125,-5.549095630645752,2.42268967628479,4.252840518951416
1771038413258308400,11.284308349609375,-5.503891468048096,2.967581033706665,4.860040187835693
1771038413277276700,11.303276611328124,-4.6254682540893555,2.9639158248901367,4.537503719329834
1771038413296244700,11.32224462890625,-3.2962262630462646,2.4764459133148193,3.5894415378570557
1771038413315212800,11.341212890625,-1.896124243736267,1.5931353569030762,2.559523344039917
1771038413334180900,11.360180908203125,-0.695164144039154,0.6206386089324951,2.0488405227661133
1771038413353149000,11.37914892578125,0.13927717506885529,-0.020769402384757996,2.0073015689849854
1771038413372117200,11.3981171875,0.3750709891319275,-0.2614501118659973,2.2846343517303467
1771038413391085300,11.417085205078125,0.2809978127479553,-0.40927940607070923,2.691470146179199
1771038413410053400,11.436053466796874,0.49113526940345764,-0.06108647957444191,2.9626941680908203
1771038413429021400,11.455021484375,0.9883792400360107,0.546113133430481,3.2119269371032715
1771038413447989500,11.473989501953126,0.8503237962722778,0.8906408548355103,3.412290573120117
1771038413466957600,11.49295751953125,0.2101374864578247,0.9309579133987427,3.5833327770233154
1771038413485926000,11.51192578125,-0.24312418699264526,1.0946696996688843,3.6260933876037598
1771038413504894000,11.53089404296875,-0.48991355299949646,1.3060288429260254,3.5002551078796387
1771038413523862000,11.549862060546875,-0.5962040424346924,1.480736255645752,3.156949281692505
1771038413542830000,11.568830078125,-0.6304124593734741,1.130099892616272,2.533867120742798
1771038413561798100,11.587798095703125,-0.4471530318260193,0.5094612240791321,1.722638726234436
1771038413580766200,11.60676611328125,0.13561198115348816,-0.11362084746360779,0.9932661056518555
1771038413599734300,11.625734375,1.0421353578567505,-0.5473348498344421,0.536339282989502
1771038413618702300,11.644702392578125,1.886350393295288,-0.8552106618881226,0.1747073233127594
1771038413637670700,11.663670654296874,2.377485752105713,-1.1728603839874268,-0.25411975383758545
1771038413656638700,11.682638671875,2.4568982124328613,-1.5222749710083008,-0.7452550530433655
1771038413675606800,11.701606689453126,2.2956297397613525,-1.997527837753296,-1.2534945011138916
1771038413694574800,11.720574951171875,2.129474639892578,-2.3897030353546143,-1.8448116779327393
1771038413713543000,11.73954296875,1.8887939453125,-2.266308307647705,-2.3848161697387695
1771038413732511000,11.758510986328124,1.6139047145843506,-1.5381574630737305,-2.601062297821045
1771038413751479000,11.77747900390625,1.1313215494155884,-0.6646208763122559,-2.4104723930358887
1771038413770447000,11.796447021484376,0.7183769941329956,-0.1795942485332489,-1.830150842666626
1771038413789415200,11.815415283203125,0.4153880476951599,0.04520399495959282,-1.156977891921997
1771038413808383200,11.83438330078125,0.050090912729501724,0.287106454372406,-0.7843503952026367
1771038413827351300,11.853351318359374,-0.22357651591300964,0.9615011811256409,-0.8906408548355103
1771038413846319400,11.8723193359375,-0.35063639283180237,1.6041308641433716,-1.2192860841751099
1771038413865287400,11.891287353515626,-0.3445277214050293,1.4367539882659912,-1.535714030265808
1771038413884255500,11.91025537109375,0.1185077652335167,0.411722868680954,-1.915671944618225
1771038413903223800,11.929223876953126,1.0372483730316162,-0.27977606654167175,-2.4019203186035156
1771038413922192000,11.94819189453125,1.4159845113754272,-0.3017672002315521,-2.9248206615448
1771038413941159700,11.96715966796875,1.0189224481582642,-0.3335321843624115,-3.3854126930236816
1771038413960127700,11.986127685546874,0.6902772188186646,-0.711046576499939,-3.4526076316833496
1771038413979095800,12.005095703125,0.6927206516265869,-0.9126319885253906,-3.04821515083313
1771038413998064000,12.024064208984376,0.4459312856197357,-0.6133082509040833,-2.4544546604156494
1771038414017032200,12.0430322265625,-0.18692462146282196,-0.023212861269712448,-1.99630606174469
1771038414036000000,12.062,-1.0238093137741089,0.5204567909240723,-1.8558071851730347
1771038414054968000,12.080968017578124,-1.7996076345443726,0.9004147052764893,-1.9486587047576904
1771038414073936100,12.09993603515625,-2.204000234603882,1.0751219987869263,-2.0549490451812744
1771038414092904200,12.118904296875,-2.3066253662109375,0.9456186890602112,-2.023184061050415
1771038414111872300,12.137872314453125,-2.2088871002197266,0.536339282989502,-1.9034546613693237
1771038414130840300,12.15684033203125,-1.9950844049453735,0.24556763470172882,-1.701869249343872
1771038414149808400,12.175808349609374,-1.7446298599243164,0.17226386070251465,-1.4648537635803223
1771038414168776400,12.1947763671875,-1.556483507156372,0.1795942485332489,-1.324354887008667
1771038414187744500,12.21374462890625,-1.4013237953186035,0.1588248461484909,-1.321911334991455
1771038414206712600,12.232712646484375,-1.1557561159133911,-0.09529490768909454,-1.3463460206985474
1771038414225680600,12.2516806640625,-0.9138537049293518,-0.5766563415527344,-1.3768892288208008
1771038414244648700,12.270648681640624,-0.7599157691001892,-1.2021819353103638,-1.3573415279388428
1771038414263616800,12.28961669921875,-0.4043924808502197,-1.7385212182998657,-1.2547162771224976
1771038414282584800,12.308584716796876,0.050090912729501724,-2.1954479217529297,-1.0836740732192993
1771038414301552600,12.327552734375,0.006108647678047419,-2.3713769912719727,-0.7672461867332458
1771038414320520700,12.346520751953125,-0.7024945020675659,-2.12580943107605,-0.15149445831775665
1771038414339488800,12.36548876953125,-1.6053526401519775,-1.4306453466415405,0.9553925395011902
1771038414358456800,12.384456787109375,-2.403141975402832,-0.9004147052764893,2.5387539863586426
1771038414377425000,12.4034248046875,-2.8124215602874756,-1.0372483730316162,3.9779515266418457
1771038414396393000,12.42239306640625,-2.646266222000122,-1.7544035911560059,4.789179801940918
1771038414415361000,12.441361083984376,-2.0341796875,-2.075718402862549,5.087281703948975
1771038414434328800,12.460328857421874,-1.507614254951477,-1.7983858585357666,4.946783065795898
1771038414462781000,12.488781005859375,-1.156977891921997,-1.2498292922973633,4.355465888977051
1771038414481749000,12.5077490234375,-0.42882707715034485,-1.3194679021835327,4.0109381675720215
1771038414500717000,12.526717041015624,0.637742817401886,-1.7324124574661255,3.4416122436523438
1771038414519685000,12.54568505859375,1.6297872066497803,-2.023184061050415,2.626718521118164
1771038414538653200,12.564653076171876,2.0305144786834717,-1.517388105392456,1.8435899019241333
1771038414557621000,12.58362109375,1.7470732927322388,-0.5962040424346924,1.3878847360610962
1771038414576589000,12.602589111328125,1.196073293685913,-0.15638138353824615,1.4294235706329346
1771038414595557000,12.62155712890625,0.9859357476234436,-0.3591884970664978,1.8631376028060913
1771038414614525200,12.640525146484375,0.8491020202636719,-1.0115920305252075,2.177122116088867
1771038414633493000,12.659492919921876,0.6401863098144531,-1.4257583618164062,2.053727388381958
1771038414652461000,12.6784609375,0.8063415288925171,-0.9602794051170349,1.6407828330993652
1771038414671429000,12.69742919921875,1.1410953998565674,-0.40317076444625854,1.2046253681182861
1771038414690397200,12.716397216796874,1.3732240200042725,-0.9407317638397217,0.8271108865737915
1771038414709365000,12.735364990234375,1.6041308641433716,-1.72141695022583,0.4825831651687622
1771038414728333000,12.7543330078125,1.5430444478988647,-1.935219645500183,0.16859868168830872
1771038414747301000,12.773301025390625,1.304807186126709,-1.7091996669769287,0.06108647957444191
1771038414766269200,12.792269287109375,1.2742639780044556,-1.545487880706787,0.13683371245861053
1771038414785237000,12.811237060546874,1.3267983198165894,-1.3585633039474487,0.3042106628417969
1771038414804205000,12.830205078125,1.1801908016204834,-1.0580178499221802,0.5241219997406006
1771038414823173000,12.849173095703126,0.7269290685653687,-1.061682939529419,0.7745765447616577
1771038414842141200,12.86814111328125,0.1649334877729416,-1.2693769931793213,1.091004490852356
1771038414861109000,12.88710888671875,0.01954767294228077,-1.3720022439956665,1.3060288429260254
1771038414880077000,12.9060771484375,0.7281508445739746,-0.9847140312194824,1.3817760944366455
1771038414899044900,12.925044921875,1.6774346828460693,-0.6487383842468262,1.323133111000061
1771038414918013000,12.944012939453126,2.0109667778015137,-0.6071996092796326,1.0848958492279053
1771038414936981000,12.96298095703125,1.7336342334747314,-0.18081597983837128,0.9321796298027039
1771038414955949000,12.981948974609375,1.082452416419983,-0.008552107028663158,1.0506874322891235
1771038414974916900,13.000916748046874,0.3225366175174713,-0.1905898153781891,1.2327251434326172
1771038414993885000,13.019885009765625,-0.14172062277793884,0.21868959069252014,1.2180644273757935
1771038415012852700,13.038852783203126,-0.2614501118659973,0.4508182108402252,0.8356630206108093
1771038415031820800,13.05782080078125,-0.2516762912273407,0.3017672002315521,0.1380554437637329
1771038415050788900,13.076788818359375,-0.10384701192378998,0.2565632164478302,-0.36285367608070374
1771038415069756700,13.095756591796874,0.05253437161445618,0.34697118401527405,-0.4886918365955353
1771038415088724700,13.114724853515625,-0.09162971377372742,0.4214966893196106,-0.5009090900421143
1771038415107692800,13.13369287109375,-0.3042106628417969,0.6805033683776855,-0.4520399272441864
1771038415126660600,13.15266064453125,-0.23823726177215576,0.8735366463661194,-0.41294458508491516
1771038415145628700,13.171628662109375,0.06352993845939636,0.8588758707046509,-0.5082395076751709
1771038415164596500,13.190596435546874,0.5729911923408508,0.41783151030540466,-0.6389645338058472
1771038415183564500,13.209564453125,1.0225876569747925,0.04153880476951599,-0.6365211009979248
1771038415202532400,13.228532470703126,1.0470222234725952,0.11728604137897491,-0.3909534513950348
1771038415221500400,13.24750048828125,0.5595521330833435,0.5338957905769348,-0.04886918142437935
1771038415240468500,13.266468505859375,-0.13561198115348816,0.9786053895950317,0.3481929302215576
1771038415259436300,13.285436279296874,-0.2809978127479553,1.0213658809661865,0.6646208763122559
1771038415278404400,13.304404296875,-0.12217295914888382,0.952949047088623,0.8222240209579468
1771038415297372200,13.3233720703125,0.18570289015769958,0.8124501705169678,0.7599157691001892
1771038415316340200,13.34234033203125,0.5815432667732239,0.5839866995811462,0.38728827238082886
1771038415335308300,13.361308349609375,0.6976075768470764,0.5607738494873047,-0.16126830875873566
1771038415354276000,13.380276123046874,0.2528980076313019,0.6230821013450623,-0.4679224193096161
1771038415373244200,13.399244140625,-0.4618137776851654,0.9590576887130737,-0.287106454372406
1771038415392212000,13.4182119140625,-0.8503237962722778,1.2608249187469482,0.318871408700943
1771038415411179800,13.4371796875,-0.7977893948554993,1.1801908016204834,0.7819069027900696
1771038415430147800,13.45614794921875,-0.5962040424346924,0.9553925395011902,0.5754346251487732
1771038415449115600,13.47511572265625,-0.471587598323822,0.6304124593734741,-0.026878049597144127
1771038415468083700,13.494083740234375,-0.48013970255851746,0.4508182108402252,-0.4789179861545563
1771038415487051800,13.5130517578125,-0.7538071274757385,0.2419024556875229,-0.4764745235443115
1771038415506019600,13.53201953125,-1.0763437747955322,0.3298669755458832,-0.2528980076313019
1771038415524987600,13.550987548828125,-1.2644901275634766,0.34574946761131287,-0.1026252806186676
1771038415543955500,13.56995556640625,-1.3793326616287231,0.32620179653167725,-0.2712239623069763
1771038415562923300,13.58892333984375,-1.4831796884536743,0.20769402384757996,-0.5277871489524841
1771038415581891300,13.607891357421876,-1.3536763191223145,-0.13072505593299866,-0.6499601006507874
1771038415600859100,13.626859130859375,-0.9053016304969788,-0.6035344004631042,-0.7574723362922668
1771038415619827200,13.6458271484375,-0.21258094906806946,-1.1362085342407227,-0.831997811794281
1771038415638795000,13.664794921875,0.23212862014770508,-1.5833615064620972,-0.8991929292678833
1771038415657763000,13.68376318359375,0.1539379209280014,-2.142913579940796,-1.0177006721496582
1771038415676731000,13.70273095703125,-0.18814635276794434,-2.324951410293579,-1.1716386079788208
1771038415695699000,13.721698974609374,-0.5534434914588928,-2.0854923725128174,-1.166751742362976
1771038415714666800,13.740666748046875,-0.8784235715866089,-1.7482949495315552,-0.6316341757774353
1771038415733634600,13.759634521484376,-1.0177006721496582,-1.6249003410339355,0.4557051360607147
1771038415752602600,13.7786025390625,-1.0848958492279053,-1.5491530895233154,1.0800089836120605
1771038415771570400,13.7975703125,-1.2046253681182861,-1.3597849607467651,1.0983349084854126
1771038415790538500,13.81653857421875,-1.459966778755188,-1.1056652069091797,0.9407317638397217
1771038415809506300,13.83550634765625,-1.6615521907806396,-0.8576541543006897,1.0592395067214966
1771038415828474400,13.854474365234376,-1.9132285118103027,-0.7574723362922668,1.4734058380126953
1771038415847442200,13.873442138671875,-2.1551308631896973,-0.6743947267532349,1.731190800666809
1771038415866410000,13.892409912109375,-2.3933682441711426,-0.41294458508491516,1.655443549156189
1771038415885378000,13.9113779296875,-2.5802929401397705,-0.034208428114652634,1.50028395652771
1771038415904345900,13.930345947265625,-2.592510223388672,0.12461641430854797,1.5296053886413574
1771038415923313700,13.949313720703126,-2.36893367767334,-0.012217295356094837,1.72141695022583
1771038415942281700,13.96828173828125,-1.9095633029937744,-0.01588248461484909,1.916893720626831
1771038415961249500,13.98724951171875,-1.5125012397766113,0.034208428114652634,2.0134103298187256
1771038415980217300,14.00621728515625,-1.1594213247299194,-0.056199558079242706,2.0683882236480713
1771038415999185400,14.025185302734375,-0.6902772188186646,-0.1331685185432434,2.1111485958099365
1771038416018153200,14.0441533203125,-0.44837474822998047,-0.003665188793092966,2.0683882236480713
1771038416037121000,14.06312109375,-0.36163195967674255,0.26389357447624207,1.9193371534347534
1771038416056089000,14.082089111328125,-0.1698204129934311,0.41294458508491516,1.7592905759811401
1771038416075057000,14.101056884765624,0.3298669755458832,0.3481929302215576,1.7446298599243164
1771038416094024700,14.120024658203125,0.934623122215271,0.23823726177215576,1.7959424257278442
1771038416112992800,14.13899267578125,1.304807186126709,0.2162461280822754,1.701869249343872
1771038416131960600,14.157960693359374,1.3597849607467651,0.10751219838857651,1.2828160524368286
1771038416150928400,14.176928466796875,1.3451242446899414,0.002443459117785096,0.6878337264060974
1771038416169896200,14.195896240234376,1.342680811882019,-0.021991131827235222,0.3848448097705841
1771038416188864300,14.2148642578125,1.4233149290084839,0.01588248461484909,0.5351175665855408
1771038416207832000,14.23383203125,1.5931353569030762,0.021991131827235222,0.831997811794281
1771038416226799900,14.2527998046875,1.7348560094833374,-0.14172062277793884,0.8833104968070984
1771038416245767700,14.271767578125,1.925445795059204,-0.5424479246139526,0.8796452879905701
1771038416264735700,14.29073583984375,2.0134103298187256,-0.7623592615127563,0.915075421333313
1771038416283703600,14.30970361328125,1.7776165008544922,-0.5668824911117554,0.8930842876434326
1771038416302671400,14.32867138671875,1.2828160524368286,-0.0769689604640007,0.8405499458312988
1771038416321639200,14.34763916015625,1.0103703737258911,0.6316341757774353,0.7342594861984253
1771038416340607200,14.366607177734375,0.9957095980644226,0.8197805285453796,0.43860089778900146
1771038416359575000,14.385574951171876,0.9834923148155212,0.7195987105369568,0.20769402384757996
1771038416378542800,14.40454296875,0.9101884961128235,0.8148936033248901,0.18081597983837128
1771038416397510700,14.4235107421875,0.7122683525085449,1.321911334991455,0.31154105067253113
1771038416416478500,14.442478515625,0.43004879355430603,1.9889757633209229,0.35063639283180237
1771038416435446500,14.461446533203125,0.10506874322891235,2.2809691429138184,0.4557051360607147
1771038416454414300,14.480414306640625,-0.08674279600381851,1.8887939453125,0.6707295179367065
1771038416473382100,14.499382080078124,0.15271618962287903,1.2290599346160889,0.7623592615127563
1771038416492350000,14.518349853515625,0.5277871489524841,0.9199623465538025,0.6597339510917664
1771038416511317800,14.53731787109375,0.7733548283576965,0.4728093445301056,0.6597339510917664
1771038416530285600,14.55628564453125,0.9419534802436829,-0.13927717506885529,0.46547895669937134
1771038416549253600,14.575253662109375,1.1325433254241943,-0.41416633129119873,-0.028099779039621353
1771038416568221400,14.594221435546874,1.266933560371399,-0.3042106628417969,-0.36163195967674255
1771038416587189200,14.613189208984375,1.3011419773101807,0.21991132199764252,-0.25534147024154663
1771038416606157000,14.632156982421876,1.1264346837997437,0.8979712128639221,-0.24556763470172882
1771038416625124900,14.651124755859374,0.7122683525085449,1.147204041481018,-0.4520399272441864
1771038416644092700,14.6700927734375,0.3836230933666229,0.9053016304969788,-0.546113133430481
1771038416663060500,14.689060546875,0.5009090900421143,0.8747583627700806,-0.5485565662384033
1771038416682028300,14.7080283203125,0.6145299673080444,1.0103703737258911,-0.740368127822876
1771038416700996400,14.726996337890625,0.4972439408302307,1.158199667930603,-1.0848958492279053
1771038416719964200,14.745964111328124,0.30543237924575806,1.3817760944366455,-1.2412772178649902
1771038416738932000,14.764931884765625,0.1490510106086731,1.9767584800720215,-0.9810488224029541
1771038416757899800,14.783899658203126,0.1380554437637329,2.4275765419006348,-0.4471530318260193
1771038416776867600,14.80286767578125,0.18203771114349365,2.5583016872406006,-0.2724456787109375
1771038416795835400,14.82183544921875,0.32620179653167725,2.505767345428467,-0.4276053309440613
1771038416814803200,14.84080322265625,0.328645259141922,2.2736387252807617,-0.5790998339653015
1771038416833771000,14.85977099609375,0.19914191961288452,1.8460333347320557,-0.554665207862854
1771038416852738800,14.87873876953125,0.046425722539424896,1.304807186126709,-0.3946186602115631
1771038416871706600,14.89770654296875,-0.19181154668331146,1.1313215494155884,-0.2626718580722809
1771038416890674400,14.91667431640625,-0.7415898442268372,1.422093152999878,-0.07574722915887833
1771038416909642200,14.935642333984376,-1.2363903522491455,1.3023637533187866,-0.009773836471140385
1771038416928610000,14.954610107421875,-1.3451242446899414,0.9309579133987427,-0.008552107028663158
1771038416947577900,14.973577880859375,-1.2828160524368286,0.6548470258712769,0.22724169492721558
1771038416966545700,14.992545654296874,-1.4391974210739136,0.4153880476951599,0.8686497211456299
1771038416985513500,15.011513427734375,-1.977980136871338,0.21868959069252014,1.8289291858673096
1771038417004481300,15.030481201171876,-2.7818782329559326,0.12461641430854797,2.7843215465545654
1771038417023449000,15.049448974609374,-3.4636032581329346,0.09529490768909454,3.4269514083862305
1771038417042417000,15.0684169921875,-3.360978126525879,0.023212861269712448,3.595550060272217
1771038417061384700,15.087384765625,-2.4911065101623535,0.06963858753442764,3.2485787868499756
1771038417080352500,15.1063525390625,-1.8289291858673096,-0.09407317638397217,2.5106542110443115
1771038417099320300,15.1253203125,-1.442862629890442,-0.5656607747077942,1.6420044898986816
1771038417118288100,15.1442880859375,-0.6194168925285339,-0.7159335017204285,0.7318159937858582
1771038417137256000,15.163255859375,-0.04153880476951599,-0.4984656572341919,0.11117739230394363
1771038417156223700,15.1822236328125,-0.04764745384454727,-0.5803215503692627,0.10384701192378998
1771038417175191600,15.201191650390625,0.04520399495959282,-0.6218603253364563,0.3811796307563782
1771038417194159400,15.220159423828125,0.11606431007385254,-0.7220421433448792,0.23945899307727814
1771038417213127200,15.239127197265624,0.03176496922969818,-0.8173370957374573,-0.10140355676412582
1771038417232094700,15.2580947265625,-0.06719512492418289,-0.7574723362922668,-0.25900667905807495
1771038417251062500,15.2770625,-0.06475166976451874,-0.5937605500221252,-0.18081597983837128
1771038417270030300,15.2960302734375,0.11362084746360779,-0.44959646463394165,-0.007330377586185932
1771038417288998100,15.314998046875,0.38850998878479004,-0.5900954008102417,0.2052505612373352
1771038417307966000,15.333966064453126,0.6389645338058472,-0.7550288438796997,0.3090975880622864
1771038417326933800,15.352933837890625,0.7696896195411682,-0.7819069027900696,0.2981020212173462
1771038417345901600,15.371901611328125,0.7611374855041504,-0.6682860851287842,0.20647229254245758
1771038417364869400,15.390869384765624,0.7696896195411682,-0.481361448764801,0.13927717506885529
1771038417383837000,15.4098369140625,0.8784235715866089,-0.2052505612373352,0.10629047453403473
1771038417402804700,15.4288046875,0.9211840629577637,-0.2712239623069763,0.3396408259868622
1771038417421772500,15.4477724609375,0.8759800791740417,-0.5400044918060303,0.5998691916465759
1771038417440740400,15.466740234375,0.6414080262184143,-0.5705476999282837,0.685390293598175
1771038417459708200,15.485708251953126,0.12950333952903748,-0.2993237376213074,0.7342594861984253
1771038417478676000,15.504676025390625,-0.5387827157974243,0.10629047453403473,0.8845322132110596
1771038417497643500,15.5236435546875,-0.9969313144683838,0.39828383922576904,0.9395100474357605
1771038417516611300,15.542611328125,-0.9517273306846619,0.3897317349910736,1.0030399560928345
1771038417535579100,15.5615791015625,-0.5656607747077942,0.2981020212173462,0.8772017955780029
1771038417554547000,15.580546875,-0.1637117564678192,0.14172062277793884,0.5607738494873047
1771038417573514800,15.5995146484375,0.06719512492418289,0.16004657745361328,0.2724456787109375
1771038417592482300,15.618482421875,0.2162461280822754,0.33597561717033386,0.04886918142437935
1771038417611450000,15.6374501953125,0.27000224590301514,0.4825831651687622,-0.26389357447624207
1771038417630418000,15.65641796875,0.37629270553588867,0.4789179861545563,-0.5754346251487732
1771038417649385700,15.6753857421875,0.44470956921577454,0.14782927930355072,-0.5070177912712097
1771038417668353300,15.694353271484376,0.31031930446624756,0.03298669680953026,-0.16615521907806396
1771038417687321000,15.713321044921875,-0.21991132199764252,0.3689623177051544,0.07330377399921417
1771038417706289000,15.732288818359375,-1.062904715538025,0.768467903137207,0.2370155304670334
1771038417725256700,15.751256591796874,-1.7470732927322388,1.1068869829177856,0.3689623177051544
1771038417744224300,15.770224365234375,-1.72141695022583,0.7965676784515381,0.7538071274757385
1771038417763192000,15.789192138671876,-1.0983349084854126,0.5375609993934631,1.2730422019958496
1771038417782160000,15.808159912109375,-0.35063639283180237,0.36651885509490967,1.331685185432434
1771038417801127400,15.82712744140625,0.29565855860710144,0.20769402384757996,0.8747583627700806
1771038417820095200,15.84609521484375,0.7635809779167175,-0.002443459117785096,0.35063639283180237
1771038417839063000,15.86506298828125,1.1264346837997437,-0.10384701192378998,0.09162971377372742
1771038417858030600,15.884030517578125,1.296255111694336,-0.22968515753746033,0.16004657745361328
1771038417876998400,15.902998291015624,1.2534945011138916,-0.36774060130119324,0.46547895669937134
1771038417895966200,15.92196630859375,1.072678565979004,-0.4459312856197357,0.8381064534187317
1771038417914934000,15.94093408203125,0.8148936033248901,-0.4410443603992462,1.0971131324768066
1771038417933901600,15.959901611328124,0.5473348498344421,-0.4361574649810791,1.2461642026901245
1771038417952869400,15.978869384765625,0.2932150959968567,-0.37751442193984985,1.3646719455718994
1771038417971837200,15.997837158203126,0.09040798991918564,-0.27488914132118225,1.51616632938385
1771038417990804700,16.0168046875,-0.11117739230394363,-0.21258094906806946,1.7067562341690063
1771038418009772500,16.0357724609375,-0.22235478460788727,-0.15271618962287903,1.8338160514831543
1771038418028740000,16.054739990234374,-0.18570289015769958,0.11606431007385254,1.7690644264221191
1771038418047708000,16.0737080078125,-0.23457208275794983,0.4202749729156494,1.5613703727722168
1771038418066675700,16.09267578125,-0.3298669755458832,0.5693259835243225,1.2999202013015747
1771038418085643300,16.111643310546874,-0.2932150959968567,0.2993237376213074,0.9578359723091125
1771038418104611000,16.130611083984373,-0.12461641430854797,0.040317077189683914,0.5290089249610901
1771038418123578600,16.14957861328125,0.09407317638397217,0.15027274191379547,0.03787361457943916
1771038418142546400,16.16854638671875,0.2260199636220932,0.730594277381897,-0.37262752652168274
1771038418161514200,16.18751416015625,0.25900667905807495,0.7391464114189148,-0.4862483739852905
1771038418180481800,16.206481689453124,0.360410213470459,0.10873392969369888,-0.36285367608070374
1771038418199449600,16.22544970703125,0.6597339510917664,-0.2968802750110626,-0.33231043815612793
1771038418218417200,16.244417236328125,0.8075632452964783,-0.1282816082239151,-0.318871408700943
1771038418237385000,16.263385009765624,0.6890554428100586,0.41294458508491516,-0.10140355676412582
1771038418256352800,16.282352783203127,0.4166097939014435,0.8649845123291016,0.22357651591300964
1771038418275320300,16.3013203125,0.22357651591300964,0.8051197528839111,0.5070177912712097
1771038418294288100,16.3202880859375,0.2162461280822754,0.4886918365955353,0.6316341757774353
1771038418313255700,16.339255615234375,0.29077163338661194,0.34086254239082336,0.49602219462394714
1771038418332223500,16.358223388671874,0.23945899307727814,0.33719736337661743,0.19303326308727264
1771038418351191000,16.37719091796875,0.09896009415388107,0.28954991698265076,0.008552107028663158
1771038418370158800,16.396158935546875,0.01588248461484909,0.13561198115348816,0.043982263654470444
1771038418389126400,16.41512646484375,-0.007330377586185932,0.05864302068948746,0.24801109731197357
1771038418408094200,16.43409423828125,-0.030543239787220955,-0.05497783049941063,0.5057960152626038
1771038418427061800,16.453061767578124,-0.004886918235570192,-0.22968515753746033,0.7672461867332458
1771038418446029600,16.472029541015626,0.010995565913617611,-0.37262752652168274,0.9773836731910706
1771038418464997000,16.4909970703125,-0.06230820715427399,-0.4043924808502197,1.147204041481018
1771038418483965000,16.50996484375,-0.2467893660068512,-0.2822195291519165,1.4587451219558716
1771038418502932500,16.528932373046874,-0.4764745235443115,-0.19792018830776215,2.017075538635254
1771038418521900000,16.547900146484373,-0.6866120100021362,-0.26389357447624207,2.733009099960327
1771038418540867800,16.566867919921876,-0.9456186890602112,-0.34574946761131287,3.2559092044830322
1771038418559835400,16.58583544921875,-1.1899645328521729,-0.2626718580722809,3.3426520824432373
1771038418578803200,16.60480322265625,-1.3952151536941528,-0.15638138353824615,3.332878351211548
1771038418597770800,16.623770751953124,-1.637117624282837,-0.2309068888425827,3.7421576976776123
1771038418616738600,16.642738525390627,-1.9193371534347534,-0.4214966893196106,4.1282243728637695
1771038418635706000,16.6617060546875,-2.2565345764160156,-0.29443681240081787,3.970621109008789
1771038418654673700,16.680673583984376,-2.5937318801879883,0.004886918235570192,3.3011133670806885
1771038418673641500,16.699641357421875,-2.7733261585235596,0.2626718580722809,2.20155668258667
1771038418692609000,16.718609130859374,-2.651153087615967,0.3090975880622864,0.9065233469009399
1771038418711576800,16.737576904296876,-2.106261730194092,0.2724456787109375,-0.3029889166355133
1771038418730544400,16.75654443359375,-1.2486076354980469,0.27366742491722107,-1.4306453466415405
1771038418749512200,16.77551220703125,-0.3543015718460083,0.31520622968673706,-2.4275765419006348
1771038418768479700,16.794479736328125,0.40317076444625854,0.43493571877479553,-3.126405954360962
1771038418787447300,16.813447265625,1.1166608333587646,0.5510000586509705,-3.4049603939056396
1771038418806415000,16.8324150390625,1.7458515167236328,0.546113133430481,-3.3206608295440674
1771038418825382700,16.851382568359377,2.1306962966918945,0.49113526940345764,-3.1972663402557373
1771038418844350200,16.87035009765625,2.307847023010254,0.4324922561645508,-3.1948227882385254
1771038418863318000,16.889318115234374,2.5949535369873047,0.24801109731197357,-3.2791221141815186
1771038418882285600,16.90828564453125,2.9749114513397217,-0.277332603931427,-3.1361796855926514
1771038418901253000,16.927253173828124,2.956585645675659,-0.7855721116065979,-2.651153087615967
1771038418920221000,16.946220947265626,2.34694242477417,-0.6120865345001221,-1.9303326606750488
1771038418939188500,16.9651884765625,1.6334524154663086,0.10629047453403473,-1.4734058380126953
1771038418958156000,16.984156005859376,1.0201442241668701,0.8307760953903198,-1.3964369297027588
1771038418977123800,17.003123779296875,0.6035344004631042,1.0018181800842285,-1.3096940517425537
1771038418996091400,17.02209130859375,0.35674503445625305,0.574212908744812,-1.0299180746078491
1771038419015059000,17.041058837890624,0.18692462146282196,0.20891575515270233,-0.6890554428100586
1771038419034026500,17.060026611328126,0.09529490768909454,0.2370155304670334,-0.34086254239082336
1771038419052994300,17.078994384765625,-0.06230820715427399,0.5583304166793823,0.03298669680953026
1771038419071961900,17.0979619140625,-0.27977606654167175,0.8356630206108093,0.2834412455558777
1771038419090929400,17.116929443359375,-0.2675587832927704,0.7831286191940308,0.5155698657035828
1771038419109897000,17.13589697265625,0.036651886999607086,0.41905322670936584,0.675616443157196
1771038419128864800,17.15486474609375,0.14782927930355072,0.05742128938436508,0.546113133430481
1771038419147832300,17.173832275390627,0.13927717506885529,0.030543239787220955,0.5204567909240723
1771038419166800000,17.1927998046875,0.22724169492721558,0.4764745235443115,0.6719512343406677
1771038419185767400,17.211767333984376,0.26389357447624207,0.7733548283576965,0.15760311484336853
1771038419204735200,17.2307353515625,0.18081597983837128,0.45326167345046997,-0.9272927641868591
1771038419223702800,17.249702880859374,0.20402882993221283,-0.08796452730894089,-1.6591087579727173
1771038419242670300,17.26867041015625,0.23945899307727814,-0.3237583339214325,-1.9462151527404785
1771038419261638000,17.287637939453123,-0.024434590712189674,-0.20402882993221283,-2.1050400733947754
1771038419280605400,17.30660546875,-0.36285367608070374,0.13683371245861053,-2.0720534324645996
1771038419299573200,17.3255732421875,-0.6609556674957275,0.35063639283180237,-1.7971642017364502
1771038419318540800,17.344540771484375,-0.8723149299621582,0.26878049969673157,-1.304807186126709
1771038419337508400,17.36350830078125,-1.0128138065338135,0.08063415437936783,-0.7916807532310486
1771038419356476000,17.382475830078125,-1.0677915811538696,-0.15271618962287903,-0.5033525824546814
1771038419375443500,17.401443359375,-0.8918625712394714,-0.4202749729156494,-0.34574946761131287
1771038419394411300,17.420411376953126,-0.5558869242668152,-0.5192350745201111,0.06719512492418289
1771038419413378800,17.43937890625,-0.38850998878479004,-0.45448338985443115,0.711046576499939
1771038419432346400,17.458346435546876,-0.3860665261745453,-0.4789179861545563,1.2974767684936523
1771038419451314000,17.47731396484375,-0.28588470816612244,-0.6096430420875549,1.4159845113754272
1771038419470281500,17.496281494140625,-0.09896009415388107,-0.8857539296150208,1.1753038167953491
1771038419489249000,17.5152490234375,0.2003636509180069,-1.1948515176773071,0.8429933786392212
1771038419508216800,17.534216796875,0.3787361681461334,-1.285259485244751,0.6914989352226257
1771038419527184400,17.553184326171873,0.10384701192378998,-1.2046253681182861,0.9480621218681335
1771038419546152000,17.57215185546875,-0.41783151030540466,-0.9896009564399719,1.3561197519302368
1771038419565119500,17.591119384765626,-0.7232639193534851,-0.8295543789863586,1.663995623588562
1771038419584087000,17.610087158203125,-0.6743947267532349,-0.9199623465538025,1.6297872066497803
1771038419603054600,17.6290546875,-0.471587598323822,-1.1496474742889404,1.284037709236145
1771038419622022100,17.648022216796875,-0.5754346251487732,-1.0690133571624756,0.711046576499939
1771038419640989700,17.66698974609375,-0.8881973624229431,-0.6548470258712769,0.06719512492418289
1771038419659957200,17.685957275390624,-1.0873392820358276,-0.007330377586185932,-0.6120865345001221
1771038419678925000,17.704925048828127,-1.0384701490402222,0.7134900689125061,-1.2718204259872437
1771038419697892600,17.723892578125,-0.8381064534187317,1.1239912509918213,-1.6676608324050903
1771038419716860200,17.742860107421876,-0.7415898442268372,1.4770710468292236,-1.7287473678588867
1771038419735827700,17.76182763671875,-0.6511818766593933,1.8729114532470703,-1.897346019744873
1771038419754795300,17.780795166015626,-0.6682860851287842,2.168570041656494,-2.4300200939178467
1771038419773762800,17.7997626953125,-0.8222240209579468,2.5998404026031494,-2.97857666015625
1771038419792730400,17.81873046875,-0.998153030872345,3.1471753120422363,-3.306000232696533
1771038419811698000,17.837697998046874,-1.0567960739135742,3.243691921234131,-3.406182050704956
1771038419830665500,17.85666552734375,-0.9480621218681335,3.0555455684661865,-3.3035566806793213
1771038419849633000,17.875633056640623,-0.8466585874557495,3.0579891204833984,-2.961472511291504
1771038419868600600,17.8946005859375,-0.924849271774292,3.302335023880005,-2.411694049835205
1771038419887568100,17.913568115234376,-1.0677915811538696,3.3719735145568848,-1.6884303092956543
1771038419906535700,17.93253564453125,-1.166751742362976,3.3548693656921387,-0.8637627959251404
1771038419925503200,17.951503173828126,-1.2046253681182861,3.356091022491455,-0.3017672002315521
1771038419944470800,17.970470703125,-1.4001020193099976,3.243691921234131,-0.10873392969369888
1771038419963438300,17.989438232421875,-1.6346741914749146,3.082423686981201,0.07941242307424545
1771038419982406000,18.008406005859374,-1.8057162761688232,2.6645922660827637,0.5375609993934631
1771038420001373400,18.02737353515625,-1.802051067352295,2.1978914737701416,1.130099892616272
1771038420020341000,18.046341064453124,-1.7091996669769287,1.92666757106781,1.4746276140213013
1771038420039308500,18.06530859375,-1.5137228965759277,1.8997894525527954,1.390328288078308
1771038420058276000,18.084276123046877,-1.4282019138336182,1.9999712705612183,1.147204041481018
1771038420077243600,18.10324365234375,-1.6676608324050903,1.8008294105529785,1.2461642026901245
1771038420096211200,18.122211181640626,-1.8044945001602173,1.3988803625106812,1.8826853036880493
1771038420115178800,18.1411787109375,-1.8032728433609009,1.0946696996688843,2.5912883281707764
1771038420134146300,18.160146240234376,-2.4092507362365723,0.6255255341529846,2.9907939434051514
1771038420153113900,18.17911376953125,-3.073871612548828,0.18692462146282196,3.408625364303589
1771038420172081400,18.198081298828125,-2.880838394165039,0.637742817401886,3.9938340187072754
1771038420191049000,18.217049072265624,-2.0635011196136475,2.1551308631896973,3.419620990753174
1771038420210016500,18.2360166015625,-1.9999712705612183,2.824638843536377,1.4672971963882446
1771038420228984000,18.254984130859373,-2.3481643199920654,2.095266103744507,-0.4153880476951599
1771038420247951600,18.27395166015625,-2.175900459289551,1.2510510683059692,-1.7140865325927734
1771038420266919200,18.292919189453126,-1.740964651107788,1.0787872076034546,-3.308443546295166
1771038420285886700,18.31188671875,-1.3756674528121948,1.3720022439956665,-4.679224014282227
1771038420304854000,18.33085400390625,-1.247385859489441,1.6896519660949707,-5.000539302825928
1771038420323821600,18.349821533203126,-1.5442661046981812,1.8289291858673096,-4.5643815994262695
1771038420342789000,18.3687890625,-1.9828671216964722,1.7983858585357666,-4.144106864929199
1771038420361756700,18.387756591796876,-2.0415101051330566,1.7800599336624146,-4.353022575378418
1771038420380724200,18.40672412109375,-1.6016874313354492,1.7849469184875488,-5.104386329650879
1771038420399691800,18.42569189453125,-0.8393282294273376,1.3439024686813354,-6.020683288574219
1771038420418659300,18.444659423828124,0.23212862014770508,0.5571087002754211,-6.8135857582092285
1771038420437627000,18.463626953125,1.2156208753585815,0.0769689604640007,-6.963858604431152
1771038420456594400,18.482594482421874,1.7275255918502808,0.26022839546203613,-6.394532680511475
1771038420475561700,18.501561767578124,1.655443549156189,1.000596523284912,-5.518552303314209
1771038420494529300,18.520529296875,1.4563016891479492,1.7886121273040771,-4.577820777893066
1771038420513496800,18.539496826171874,1.461188554763794,2.001193046569824,-3.7543749809265137
1771038420532464400,18.55846435546875,1.693317174911499,1.4440842866897583,-3.3597562313079834
1771038420551432000,18.577431884765623,2.207665205001831,0.9224058389663696,-3.4464991092681885
1771038420570399500,18.5963994140625,2.691470146179199,0.94439697265625,-3.4770424365997314
1771038420589367000,18.615366943359376,2.737895965576172,1.1325433254241943,-3.073871612548828
1771038420608334300,18.634334228515623,2.6780312061309814,1.4025455713272095,-2.2626430988311768
1771038420627302000,18.653302001953126,2.6059491634368896,1.6065744161605835,-1.1972949504852295
1771038420646269400,18.67226953125,2.472780704498291,1.8472551107406616,-0.3017672002315521
1771038420665237000,18.691237060546875,2.3799290657043457,1.9107850790023804,0.16249002516269684
1771038420684204500,18.71020458984375,2.6328272819519043,1.7776165008544922,0.27366742491722107
1771038420703171800,18.729171875,2.880838394165039,1.6884303092956543,0.30054548382759094
1771038420722139400,18.748139404296875,2.755000114440918,1.5931353569030762,0.4251618981361389
1771038420741107000,18.76710693359375,2.2137739658355713,1.4257583618164062,0.4105011224746704
1771038420760074500,18.786074462890625,1.7177517414093018,1.2681553363800049,-0.12095122784376144
1771038420779041800,18.805041748046875,1.7299690246582031,1.0506874322891235,-1.091004490852356
1771038420798009300,18.82400927734375,2.327394723892212,1.4025455713272095,-1.8814635276794434
1771038420816977000,18.842976806640625,2.4740023612976074,2.142913579940796,-2.2198827266693115
1771038420835944400,18.8619443359375,2.146578788757324,2.411694049835205,-2.4459025859832764
1771038420854912000,18.880912109375,1.9388848543167114,2.1001532077789307,-2.679252862930298
1771038420873879300,18.89987939453125,1.9315544366836548,1.7751730680465698,-2.8295257091522217
1771038420892846800,18.918846923828124,1.8716896772384644,2.067166328430176,-2.6303837299346924
1771038420911814400,18.937814453125,1.5503748655319214,2.66581392288208,-2.0830488204956055
1771038420930782000,18.956781982421877,1.1655299663543701,3.082423686981201,-1.4367539882659912
1771038420949749200,18.975749267578124,0.8857539296150208,3.095862627029419,-1.091004490852356
1771038420968716800,18.994716796875,0.8087849617004395,2.7476696968078613,-1.2290599346160889
1771038420987684400,19.013684326171877,0.778241753578186,2.360381603240967,-1.6407828330993652
1771038421006652000,19.03265185546875,0.7648026943206787,2.098931312561035,-2.0097451210021973
1771038421025619200,19.051619140625,0.8772017955780029,2.086714029312134,-2.0268492698669434
1771038421044586800,19.070586669921877,1.0067051649093628,2.142913579940796,-1.7934989929199219
1771038421063554300,19.08955419921875,1.0848958492279053,2.2626430988311768,-1.6334524154663086
1771038421082521600,19.108521484375,0.9663881063461304,2.4104723930358887,-1.5393792390823364
1771038421101489200,19.1274892578125,0.8918625712394714,2.5546364784240723,-1.361006736755371
1771038421120456700,19.146456787109376,0.9492838382720947,2.542419195175171,-1.091004490852356
1771038421139424300,19.16542431640625,0.9602794051170349,2.6145012378692627,-0.84177166223526
1771038421158391600,19.1843916015625,0.6450732350349426,2.889390468597412,-0.6255255341529846
1771038421177359000,19.203359130859376,0.11972949653863907,2.874729633331299,-0.49113526940345764
1771038421196326700,19.22232666015625,-0.05253437161445618,2.2699735164642334,-0.5888736248016357
1771038421215294000,19.2412939453125,0.18692462146282196,2.0769402980804443,-0.6988292932510376
1771038421234261500,19.260261474609376,0.2883281707763672,2.6193881034851074,-0.6194168925285339
1771038421253229000,19.27922900390625,-0.036651886999607086,3.579667568206787,-0.5375609993934631
1771038421272196400,19.2981962890625,-0.26511532068252563,4.300487995147705,-0.5607738494873047
1771038421291164000,19.317163818359376,-0.21380266547203064,4.448317527770996,-0.7648026943206787
1771038421310131500,19.33613134765625,-0.23457208275794983,4.137998104095459,-1.1850776672363281
1771038421329098800,19.3550986328125,-0.31520622968673706,3.872882604598999,-1.9950844049453735
1771038421348066300,19.37406640625,-0.33108872175216675,3.740935802459717,-3.006676435470581
1771038421367033900,19.393033935546875,-0.14172062277793884,3.582111120223999,-3.7714791297912598
1771038421386001200,19.412001220703125,0.0818558782339096,3.193601131439209,-4.194197654724121
1771038421404968700,19.43096875,0.10751219838857651,2.506989002227783,-4.626689910888672
1771038421423936300,19.449936279296875,0.20280711352825165,1.8167119026184082,-5.243663311004639
1771038421442903600,19.468903564453125,0.43004879355430603,1.3854413032531738,-5.685929298400879
1771038421461871000,19.48787109375,0.5497782826423645,1.2901464700698853,-5.690816402435303
1771038421480838400,19.50683837890625,0.7269290685653687,1.3866630792617798,-5.237554550170898
1771038421499806000,19.525805908203125,0.5962040424346924,1.4721840620040894,-4.669450283050537
1771038421518773200,19.544773193359376,0.3433060050010681,1.626121997833252,-4.3799004554748535
1771038421537740800,19.56374072265625,0.16249002516269684,1.8338160514831543,-4.295600891113281
1771038421556708400,19.582708251953125,0.2003636509180069,2.171013355255127,-4.0866851806640625
1771038421575675600,19.601675537109376,0.29077163338661194,2.1502439975738525,-3.6835145950317383
1771038421594643200,19.620643310546875,0.24801109731197357,2.003636360168457,-3.299891471862793
1771038421613610500,19.639610595703125,0.16859868168830872,1.830150842666626,-3.020115375518799
1771038421632578000,19.658578125,0.22479823231697083,1.433088779449463,-2.6499314308166504
1771038421651545600,19.677545654296875,0.38728827238082886,0.9883792400360107,-2.260199785232544
1771038421670513000,19.696512939453125,0.46059203147888184,0.7061597108840942,-2.2149956226348877
1771038421689480400,19.71548046875,0.5693259835243225,0.8637627959251404,-2.2846343517303467
1771038421708447700,19.73444775390625,0.6462949514389038,1.0555742979049683,-2.349385976791382
1771038421727415300,19.753415283203125,0.7122683525085449,0.9419534802436829,-2.5326454639434814
1771038421746382800,19.7723828125,1.091004490852356,0.12461641430854797,-2.5607452392578125
1771038421765350100,19.79135009765625,1.6200133562088013,-0.8894191384315491,-2.349385976791382
1771038421784317700,19.810317626953125,1.8338160514831543,-1.2901464700698853,-2.0500621795654297
1771038421803285000,19.829284912109376,1.7788382768630981,-0.8967494964599609,-1.831372618675232
1771038421822252500,19.84825244140625,1.6383392810821533,-0.03543015569448471,-1.6493349075317383
1771038421841219800,19.8672197265625,1.4819579124450684,0.49602219462394714,-1.3072506189346313
1771038421860187400,19.8861875,1.499062180519104,0.16126830875873566,-1.0360267162322998
1771038421879154700,19.90515478515625,1.693317174911499,-0.318871408700943,-1.0775654315948486
1771038421898122200,19.924122314453125,1.8130466938018799,-0.3555232882499695,-1.1753038167953491
1771038421917089500,19.943089599609376,1.6872085332870483,-0.1026252806186676,-1.2192860841751099
1771038421936057000,19.96205712890625,1.5955787897109985,-0.12950333952903748,-1.4025455713272095
1771038421955024600,19.981024658203125,1.9596542119979858,-0.7318159937858582,-1.8765766620635986
1771038421973992000,19.999991943359376,2.537532329559326,-1.285259485244751,-2.5130977630615234
1771038421992959500,20.01895947265625,2.654818296432495,-0.9871574640274048,-2.8796164989471436
1771038422011926800,20.0379267578125,2.145357131958008,0,-2.8405213356018066
1771038422030894000,20.05689404296875,1.4208714962005615,0.7476984858512878,-2.6804747581481934
1771038422049861600,20.075861572265627,0.9957095980644226,1.0250310897827148,-2.7696609497070312
1771038422068829000,20.094828857421874,0.7391464114189148,1.1899645328521729,-3.0995278358459473
1771038422087796500,20.11379638671875,0.47036588191986084,1.25715970993042,-3.386634349822998
1771038422106763800,20.132763671875,0.15760311484336853,1.1899645328521729,-3.5222463607788086
1771038422125731300,20.1517314453125,-0.1490510106086731,1.102000117301941,-3.6175413131713867
1771038422144698600,20.17069873046875,-0.360410213470459,1.1154390573501587,-3.7287185192108154
1771038422163666200,20.189666259765627,-0.47036588191986084,1.1142174005508423,-3.816683053970337
1771038422182633500,20.208633544921874,-0.5314523577690125,1.1032217741012573,-3.9095346927642822
1771038422201601000,20.22760107421875,-0.5900954008102417,1.0506874322891235,-4.05247688293457
1771038422230052000,20.256052001953126,-0.5595521330833435,0.7354812026023865,-4.346913814544678
1771038422249019400,20.275019287109377,-0.36285367608070374,0.27488914132118225,-4.491077899932861
1771038422267987000,20.293987060546876,-0.03909534588456154,-0.3298669755458832,-4.508182048797607
1771038422286954200,20.312954345703126,0.1649334877729416,-0.758694052696228,-4.433656692504883
1771038422305921800,20.331921875,0.1490510106086731,-0.924849271774292,-4.224740982055664
1771038422324889000,20.35088916015625,-0.08063415437936783,-0.9334014058113098,-3.8570001125335693
1771038422343856600,20.369856689453126,-0.5143481492996216,-0.8442151546478271,-3.3536477088928223
1771038422362824000,20.388823974609377,-1.0164790153503418,-0.7073814272880554,-2.765995740890503
1771038422381791500,20.40779150390625,-1.517388105392456,-0.5900954008102417,-2.1697916984558105
1771038422410242600,20.43624267578125,-1.99630606174469,-0.2981020212173462,-1.117882490158081
1771038422429209900,20.4552099609375,-2.283412456512451,-0.10629047453403473,-0.08674279600381851
1771038422448177400,20.474177490234375,-2.6523749828338623,0.08429934084415436,1.117882490158081
1771038422467144700,20.493144775390626,-3.0054547786712646,0.5119046568870544,2.184452533721924
1771038422486112000,20.512112060546876,-2.9724678993225098,1.061682939529419,2.6523749828338623
1771038422505079600,20.53107958984375,-2.3677117824554443,1.489288330078125,2.4104723930358887
1771038422524046800,20.550046875,-1.1239912509918213,1.2693769931793213,2.028071165084839
1771038422543014400,20.569014404296876,0.5668824911117554,0.564439058303833,1.9999712705612183
1771038422561981700,20.587981689453127,1.7702860832214355,-0.6927206516265869,1.9193371534347534
1771038422580949000,20.606948974609374,2.285856008529663,-1.6798781156539917,1.5992439985275269
1771038422599916500,20.62591650390625,2.49843692779541,-1.9584324359893799,1.5344923734664917
1771038422618883800,20.6448837890625,2.329838275909424,-2.0476186275482178,2.0390665531158447
1771038422637851400,20.663851318359374,1.8521419763565063,-2.2027783393859863,3.0531022548675537
1771038422656818700,20.682818603515624,1.2412772178649902,-2.1221442222595215,4.036594390869141
1771038422675786000,20.701785888671875,0.8857539296150208,-2.001193046569824,4.69388484954834
1771038422694753500,20.72075341796875,0.8588758707046509,-1.7519601583480835,5.021308422088623
1771038422713720800,20.739720947265624,1.081230640411377,-0.9639446139335632,5.103164196014404
1771038422732688100,20.758688232421875,1.4966187477111816,0.026878049597144127,4.976104259490967
1771038422751655700,20.77765576171875,1.8130466938018799,0.6450732350349426,4.736645698547363
1771038422770623000,20.796623046875,2.1050400733947754,0.6621774435043335,4.56071662902832
1771038422789590500,20.815590576171875,2.5411975383758545,0.15638138353824615,4.484969139099121
1771038422808557800,20.834557861328125,2.9834635257720947,-0.28466299176216125,4.552164554595947
1771038422827525000,20.853525146484376,3.2644612789154053,-0.43004879355430603,4.719541072845459
1771038422846492400,20.872492431640627,3.43672513961792,-0.564439058303833,4.796510219573975
1771038422865460000,20.8914599609375,3.447720766067505,-0.5143481492996216,4.767188549041748
1771038422884427300,20.91042724609375,3.2766785621643066,-0.4984656572341919,4.5252861976623535
1771038422903394800,20.929394775390627,3.1227407455444336,-1.1557561159133911,3.903425931930542
1771038422922362000,20.948362060546874,3.0555455684661865,-2.1245877742767334,3.2058184146881104
1771038422941329400,20.967329345703124,3.0017895698547363,-2.4349069595336914,2.690248489379883
1771038422960297000,20.986296875,3.056767463684082,-2.3066253662109375,2.2980732917785645
1771038422979264300,21.00526416015625,3.2485787868499756,-1.7104213237762451,2.0500621795654297
1771038422998231600,21.0242314453125,3.160614252090454,-0.9480621218681335,1.986532211303711
1771038423017199000,21.04319921875,2.720791816711426,-0.5766563415527344,1.8435899019241333
1771038423036166400,21.06216650390625,2.366490125656128,-0.48013970255851746,1.4306453466415405
1771038423055133700,21.0811337890625,2.1355831623077393,-0.1185077652335167,0.8955277800559998
1771038423074101200,21.100101318359375,1.925445795059204,0.28954991698265076,0.5803215503692627
1771038423093068500,21.119068603515625,1.6151264905929565,0.7342594861984253,0.4056142270565033
1771038423112035800,21.138035888671876,1.0311397314071655,1.2156208753585815,0.03298669680953026
1771038423131003100,21.157003173828127,0.2919933497905731,1.8423681259155273,-0.516791582107544
1771038423149970700,21.175970703125,-0.3787361681461334,2.3567163944244385,-0.8930842876434326
1771038423168938000,21.19493798828125,-0.6976075768470764,2.794095516204834,-0.915075421333313
1771038423187905300,21.2139052734375,-0.5656607747077942,3.1202971935272217,-0.6511818766593933
1771038423206872800,21.232872802734374,-0.22846342623233795,3.5674502849578857,-0.43371400237083435
1771038423225840000,21.251840087890624,0.18081597983837128,3.833787441253662,-0.5216785073280334
1771038423244807400,21.270807373046875,0.7867938280105591,3.7238316535949707,-0.8100066781044006
1771038423263774700,21.289774658203125,1.488066554069519,3.2070400714874268,-1.2192860841751099
1771038423282742300,21.3087421875,2.1551308631896973,2.36893367767334,-1.7434080839157104
1771038423301709600,21.32770947265625,2.6426010131835938,1.7702860832214355,-2.2589778900146484
1771038423320676900,21.3466767578125,2.64382266998291,1.7043126821517944,-2.4568982124328613
1771038423339644400,21.36564453125,2.2614214420318604,1.8093814849853516,-2.1416919231414795
1771038423358611700,21.38461181640625,2.075718402862549,2.1331398487091064,-1.701869249343872
1771038423377579000,21.4035791015625,2.006079912185669,2.0659446716308594,-1.6236785650253296
1771038423396546300,21.42254638671875,1.4782928228378296,1.4245367050170898,-1.9816453456878662
1771038423415513900,21.441513916015627,0.4972439408302307,0.833219587802887,-2.5558581352233887
1771038423434481200,21.460481201171874,-0.4789179861545563,0.8307760953903198,-2.897942543029785
1771038423453448400,21.479448486328124,-1.3561197519302368,1.8081597089767456,-2.852738618850708
1771038423472416000,21.498416015625,-2.294408082962036,2.9040510654449463,-2.4129159450531006
1771038423491383300,21.51738330078125,-3.1337363719940186,3.082423686981201,-2.079383611679077
1771038423510350600,21.5363505859375,-3.4025168418884277,2.3347251415252686,-2.340833902359009
1771038423529318000,21.55531787109375,-3.009119987487793,1.3292417526245117,-2.813643217086792
1771038423548285200,21.57428515625,-2.867399215698242,0.9224058389663696,-2.8539602756500244
1771038423567252700,21.593252685546876,-3.4135124683380127,0.4935787320137024,-2.1197006702423096
1771038423586220000,21.612219970703126,-3.8521132469177246,-0.19303326308727264,-0.823445737361908
1771038423605187300,21.631187255859373,-3.8789913654327393,-1.1630865335464478,0.1844811588525772
1771038423624155000,21.65015478515625,-4.034151077270508,-1.8668028116226196,0.22357651591300964
1771038423643122200,21.6691220703125,-4.762301921844482,-1.8362594842910767,0.10384701192378998
1771038423662089500,21.68808935546875,-5.132485866546631,-1.869246244430542,0.6426297426223755
1771038423681056800,21.707056884765624,-4.3102617263793945,-2.146578788757324,1.6798781156539917
1771038423700024300,21.7260244140625,-3.866774082183838,-1.5723659992218018,2.4935500621795654
1771038423718991600,21.74499169921875,-3.462381601333618,-0.526565432548523,3.1728317737579346
1771038423737959000,21.763958984375,-2.34694242477417,0.29077163338661194,3.9229736328125
1771038423756926200,21.78292626953125,-1.1520910263061523,0.5229002237319946,4.064694404602051
1771038423775893800,21.801893798828125,0.021991131827235222,0.4263836145401001,3.425729751586914
1771038423794860800,21.82086083984375,1.100778341293335,-0.008552107028663158,2.5546364784240723
1771038423813828400,21.839828369140626,1.9535455703735352,-0.4764745235443115,1.6762129068374634
1771038423832795600,21.858795654296873,2.494771718978882,-0.7293725609779358,0.8564324378967285
1771038423851763000,21.877762939453124,2.8038692474365234,-0.8576541543006897,0.06108647957444191
1771038423870730500,21.89673046875,2.852738618850708,-0.768467903137207,-0.4789179861545563
1771038423889697800,21.91569775390625,2.416581153869629,-0.5057960152626038,-0.41294458508491516
1771038423908665000,21.9346650390625,1.8826853036880493,0.15027274191379547,0.49113526940345764
1771038423927632400,21.95363232421875,1.4660754203796387,1.2009601593017578,1.666439175605774
1771038423946599700,21.972599609375,0.9138537049293518,2.142913579940796,2.42268967628479
1771038423965567200,21.991567138671876,0.2919933497905731,3.095862627029419,2.802647590637207
1771038423984534500,22.010534423828126,-0.3225366175174713,3.931525707244873,2.6059491634368896
1771038424003501800,22.029501708984377,-0.3335321843624115,4.170984745025635,1.9498803615570068
1771038424022469000,22.04846923828125,0.7965676784515381,3.693288564682007,1.1740821599960327
1771038424041436700,22.067436767578126,2.5741841793060303,2.913825035095215,0.10384701192378998
1771038424060404000,22.086404052734373,4.024377346038818,2.5106542110443115,-0.9651663303375244
1771038424079371300,22.105371337890624,4.311483383178711,1.7763947248458862,-2.1355831623077393
1771038424098338600,22.124338623046874,3.419620990753174,1.4110976457595825,-3.5332419872283936
1771038424117305900,22.143305908203125,2.525315046310425,1.6407828330993652,-3.3854126930236816
1771038424136273200,22.162273193359376,1.0103703737258911,2.635270595550537,-2.1807873249053955
1771038424155240700,22.18124072265625,-1.227838158607483,4.439765453338623,-1.832594394683838
1771038424174208000,22.2002080078125,-3.1789402961730957,4.868592262268066,-1.4575233459472656
1771038424193175300,22.21917529296875,-3.265683174133301,3.5002551078796387,-0.6768381595611572
1771038424212142600,22.238142578125,-2.6254968643188477,2.246760606765747,-0.43982264399528503
1771038424231110000,22.25710986328125,-1.9046764373779297,1.6016874313354492,-0.915075421333313
1771038424250077200,22.2760771484375,-1.0238093137741089,1.1924080848693848,-1.3915499448776245
1771038424269044500,22.29504443359375,-0.4679224193096161,0.5119046568870544,-1.693317174911499
1771038424288012000,22.314011962890625,-0.6096430420875549,-0.06352993845939636,-1.944993495941162
1771038424306979300,22.332979248046875,-1.072678565979004,-0.06841685622930527,-2.149022340774536
1771038424325946600,22.351946533203126,-1.1997383832931519,0.3946186602115631,-1.8460333347320557
1771038424344914000,22.370913818359377,-1.4159845113754272,0.6560688018798828,-1.3402373790740967
1771038424363881200,22.389881103515624,-1.8851287364959717,0.49113526940345764,-1.0286962985992432
1771038424382848500,22.4088486328125,-2.361603260040283,-0.010995565913617611,-0.7379246354103088
1771038424401816000,22.427816162109377,-2.780656576156616,-0.5277871489524841,-0.7171552777290344
1771038424420783400,22.446783447265624,-3.249800682067871,-0.9761618971824646,-1.1423171758651733
1771038424439750700,22.465750732421874,-3.97672963142395,-0.9908226728439331,-1.459966778755188
1771038424458718000,22.484718017578125,-4.943117618560791,-0.31031930446624756,-1.0042617321014404
1771038424477685200,22.503685302734375,-6.007244110107422,0.8051197528839111,0.10751219838857651
1771038424496652500,22.522652587890626,-6.812364101409912,1.8008294105529785,1.2241730690002441
1771038424515620000,22.5416201171875,-6.7072954177856445,2.051283836364746,1.9462151527404785
1771038424534587400,22.56058740234375,-5.067734241485596,1.2021819353103638,2.1807873249053955
1771038424553554700,22.5795546875,-2.850295066833496,-0.25045454502105713,2.3396120071411133
1771038424572522000,22.59852197265625,-1.4953969717025757,-1.4025455713272095,3.1557273864746094
1771038424591489300,22.6174892578125,-1.7751730680465698,-1.8435899019241333,3.979173183441162
1771038424610456600,22.63645654296875,-2.470337152481079,-1.5051708221435547,3.2791221141815186
1771038424629423900,22.655423828125,-1.8435899019241333,-1.1252129077911377,2.36893367767334
1771038424648391200,22.67439111328125,-1.0543526411056519,-0.5937605500221252,2.9040510654449463
1771038424667358500,22.6933583984375,-0.8796452879905701,0.627968966960907,3.595550060272217
1771038424686326000,22.712325927734376,-0.24923282861709595,1.4306453466415405,4.053698539733887
1771038424705293300,22.731293212890623,0.758694052696228,1.546709656715393,3.8741044998168945
1771038424724260600,22.750260498046874,1.8985676765441895,1.5027273893356323,3.1557273864746094
1771038424743228000,22.769227783203124,2.850295066833496,1.0103703737258911,2.464228630065918
1771038424762195200,22.7881953125,3.3316564559936523,0.44348782300949097,1.821598768234253
1771038424781162500,22.80716259765625,3.282787322998047,-0.1026252806186676,1.1129956245422363
1771038424800129800,22.8261298828125,2.8600687980651855,-0.6902772188186646,0.3237583339214325
1771038424819097000,22.84509716796875,2.235764980316162,-1.0299180746078491,-0.3652971386909485
1771038424838064400,22.864064453125,1.6517783403396606,-1.0250310897827148,-0.6805033683776855
1771038424857031700,22.88303173828125,1.2681553363800049,-0.7623592615127563,-0.4776962697505951
1771038424875999200,22.901999267578127,1.265711784362793,-0.4557051360607147,0.3384190797805786
1771038424894966300,22.92096630859375,1.1753038167953491,0.2052505612373352,1.4233149290084839
1771038424913933800,22.939933837890624,0.4459312856197357,1.3280199766159058,2.0769402980804443
1771038424932901000,22.958901123046875,-0.5412262082099915,2.8344125747680664,2.232100009918213
1771038424951868400,22.977868408203125,-1.352454662322998,3.894873857498169,1.9046764373779297
1771038424970835700,22.996835693359376,-1.1691951751708984,3.8679957389831543,1.313359260559082
1771038424989803000,23.015802978515627,0.04153880476951599,3.1312928199768066,0.94439697265625
1771038425008770300,23.034770263671874,1.2290599346160889,2.394589900970459,0.5693259835243225
1771038425027737600,23.053737548828124,2.388481378555298,2.001193046569824,-0.14660754799842834
1771038425046705000,23.072704833984375,3.475820541381836,1.6493349075317383,-0.9065233469009399
1771038425065672200,23.091672119140625,3.2766785621643066,0.6914989352226257,-2.0696098804473877
1771038425084639500,23.110639404296876,2.620609998703003,-0.6145299673080444,-2.740339517593384
1771038425103606800,23.129606689453126,1.9657628536224365,-1.3891065120697021,-1.5112794637680054
1771038425122574000,23.148573974609373,0.2822195291519165,-0.17348559200763702,-0.1490510106086731
1771038425141541400,23.167541259765624,-1.1972949504852295,1.9291110038757324,0.2981020212173462
1771038425160508700,23.1865087890625,-2.238208532333374,2.6022839546203613,0.5729911923408508
1771038425179476000,23.20547607421875,-2.581514596939087,2.266308307647705,0.564439058303833
1771038425198443300,23.224443359375,-2.4471242427825928,1.7287473678588867,0.4214966893196106
1771038425217410600,23.24341064453125,-1.860694169998169,1.3023637533187866,0.20891575515270233
1771038425236377900,23.2623779296875,-0.9920443892478943,1.1655299663543701,-0.03787361457943916
1771038425255345200,23.28134521484375,-0.3970620930194855,1.0018181800842285,-0.17715078592300415
1771038425274312400,23.3003125,-0.3078758418560028,0.6780598759651184,-0.32131487131118774
1771038425293279700,23.31927978515625,-0.6340776681900024,0.06352993845939636,-0.49480047821998596
1771038425312247000,23.3382470703125,-0.9871574640274048,-0.647516667842865,-0.7073814272880554
1771038425331214300,23.35721435546875,-1.081230640411377,-0.9615011811256409,-0.8845322132110596
1771038425350181600,23.376181640625,-0.9224058389663696,-0.8674280047416687,-0.7660244107246399
1771038425369149000,23.39514892578125,-0.972496747970581,-0.5827649831771851,-0.3555232882499695
1771038425388116200,23.4141162109375,-1.3439024686813354,-0.3042106628417969,0.20280711352825165
1771038425407083500,23.43308349609375,-1.877798318862915,-0.12217295914888382,0.5583304166793823
1771038425426050800,23.45205078125,-2.3823726177215576,-0.1649334877729416,0.5180133581161499
1771038425445018000,23.47101806640625,-2.6804747581481934,-0.5302306413650513,0.44470956921577454
1771038425463985400,23.4899853515625,-3.1166322231292725,-1.137430191040039,0.6255255341529846
1771038425482952700,23.50895263671875,-3.579667568206787,-1.5772528648376465,1.1545344591140747
1771038425501920000,23.527919921875,-3.3548693656921387,-1.5809180736541748,2.0292928218841553
1771038425520887300,23.54688720703125,-2.4434590339660645,-0.9260709881782532,2.858847141265869
1771038425539854600,23.5658544921875,-1.7580687999725342,-0.6206386089324951,3.258352756500244
1771038425558822000,23.58482177734375,-1.3671153783798218,-1.635895848274231,3.0579891204833984
1771038425577789200,23.6037890625,-0.5241219997406006,-3.31333065032959,2.5851798057556152
1771038425596756500,23.622756591796875,-0.29443681240081787,-4.280940532684326,2.3787074089050293
1771038425615723800,23.641723876953126,-0.8014546036720276,-3.9217519760131836,2.3322818279266357
1771038425634691000,23.660691162109377,-1.4941751956939697,-2.8087563514709473,2.5363106727600098
1771038425653658000,23.679658203125,-2.0048582553863525,-2.416581153869629,2.663370370864868
1771038425672625400,23.69862548828125,-2.0720534324645996,-2.459341526031494,2.805091142654419
1771038425691592700,23.7175927734375,-2.2650866508483887,-1.7458515167236328,2.8686211109161377
1771038425710560000,23.73656005859375,-2.2736387252807617,-0.4214966893196106,2.7256786823272705
1771038425729527300,23.75552734375,-1.8289291858673096,0.5705476999282837,2.177122116088867
1771038425748494600,23.77449462890625,-0.9700532555580139,0.9260709881782532,1.5577051639556885
1771038425767462000,23.7934619140625,-0.0513126403093338,0.8222240209579468,1.120326042175293
1771038425786429200,23.81242919921875,0.546113133430481,0.5583304166793823,0.9187406301498413
1771038425805396500,23.831396484375,0.7269290685653687,0.2003636509180069,0.7770199775695801
1771038425824363800,23.85036376953125,0.6071996092796326,-0.03787361457943916,0.6890554428100586
1771038425843331000,23.8693310546875,0.6817250847816467,-0.1649334877729416,0.7880155444145203
1771038425862298000,23.888298095703124,0.8808670043945312,-0.33108872175216675,0.8943060636520386
1771038425881265400,23.907265380859375,0.9236275553703308,-0.4764745235443115,0.7892373204231262
1771038425900232700,23.926232666015625,0.9187406301498413,-0.6291907429695129,0.6731730103492737
1771038425919200000,23.945199951171876,1.0555742979049683,-0.7415898442268372,0.6059778332710266
1771038425938167300,23.964167236328127,1.147204041481018,-0.5852084755897522,0.5925388336181641
1771038425957134600,23.983134521484374,1.1239912509918213,-0.12950333952903748,0.6963858604431152
