time,seconds_elapsed,z,y,x
1771038402097866800,0.12386669921875,0.38759371638298035,0.16249002516269684,-0.21930044889450073
1771038402116834800,0.142834716796875,0.40225446224212646,0.21197007596492767,-0.006719512399286032
1771038402135803100,0.16180322265625,0.41874781250953674,0.08979712426662445,0.19914191961288452
1771038402154771200,0.180771240234375,0.5097666382789612,-0.0922405794262886,0.3481929302215576
1771038402173739300,0.1997392578125,0.6331613659858704,0.06352993845939636,0.4978547990322113
1771038402192707600,0.21870751953125,0.7052434086799622,0.5039634704589844,0.5253437161445618
1771038402211675600,0.237675537109375,0.6918043494224548,0.8936951756477356,0.2528980076313019
1771038402230643700,0.256643798828125,0.5201513767242432,1.056185245513916,-0.13255766034126282
1771038402249611800,0.27561181640625,0.34055712819099426,0.7635809779167175,-0.2730565667152405
1771038402268580000,0.294580078125,0.10415244847536087,0.3329212963581085,-0.3072649836540222
1771038402287548200,0.313548095703125,-0.15607595443725586,0.2260199636220932,-0.35124725103378296
1771038402306516200,0.33251611328125,-0.048563748598098755,0.5485565662384033,-0.3964512348175049
1771038402325484300,0.351484375,0.2464839369058609,1.1691951751708984,-0.5326740741729736
1771038402344452600,0.37045263671875,0.4712821841239929,1.7330234050750732,-0.8619301915168762
1771038402363420700,0.389420654296875,0.24404047429561615,1.361006736755371,-1.2357794046401978
1771038402382388700,0.408388671875,0.021685699000954628,0.5510000586509705,-1.2730422019958496
1771038402401356800,0.427356689453125,-0.02412915788590908,-0.39828383922576904,-0.9902117848396301
1771038402420324900,0.446324951171875,0.018631376326084137,-1.0720677375793457,-0.4410443603992462
1771038402439293200,0.465293212890625,0.17134757339954376,-1.2699878215789795,0.05070177838206291
1771038402458261200,0.48426123046875,0.24220788478851318,-1.2596031427383423,0.19242240488529205
1771038402477229600,0.5032294921875,0.4627300798892975,-1.4037672281265259,0.21807873249053955
1771038402496197600,0.52219775390625,0.7076868414878845,-1.7360776662826538,0.5699368119239807
1771038402515165700,0.541165771484375,0.9844086170196533,-1.5589269399642944,0.8918625712394714
1771038402534133800,0.5601337890625,1.0491602420806885,-1.6420044898986816,0.8191696405410767
1771038402553102000,0.57910205078125,0.796262264251709,-1.5961896181106567,0.3964512348175049
1771038402572070100,0.598070068359375,0.6093376278877258,-1.3597849607467651,0.17837251722812653
1771038402591038200,0.6170380859375,0.6075050234794617,-0.9144645929336548,0.19792018830776215
1771038402610006300,0.63600634765625,0.4474584460258484,-0.33536475896835327,0.18753549456596375
1771038402628974600,0.654974609375,0.3906480371952057,-0.35124725103378296,0.18142683804035187
1771038402647942700,0.673942626953125,0.6447677612304688,-0.9621120095252991,0.047036588191986084
1771038402666910700,0.69291064453125,1.4260637760162354,-1.3267983198165894,-0.22357651591300964
1771038402685878800,0.711878662109375,2.0949606895446777,-1.8368704319000244,-0.3689623177051544
1771038402704846800,0.730846923828125,2.0357067584991455,-1.5393792390823364,-0.2577849328517914
1771038402723815200,0.749815185546875,1.580001711845398,-0.7611374855041504,0.31459537148475647
1771038402742783200,0.768783203125,0.7626646757125854,-0.2516762912273407,1.0665699243545532
1771038402761751300,0.787751220703125,0.09987638890743256,-0.8075632452964783,1.0238093137741089
1771038402780719400,0.80671923828125,0.2006690800189972,-1.1643083095550537,0.758083164691925
1771038402799687700,0.825687744140625,0.33567020297050476,-1.5687007904052734,0.7525854110717773
1771038402818655700,0.84465576171875,0.13713914155960083,-1.9095633029937744,1.0409135818481445
1771038402837623800,0.863623779296875,-0.0461202897131443,-1.5906919240951538,1.073289394378662
1771038402856592000,0.882591796875,0.051618073135614395,-0.9920443892478943,1.1771364212036133
1771038402875560200,0.901560302734375,0.07605266571044922,-0.8943060636520386,1.3445134162902832
1771038402894528300,0.9205283203125,-0.06872228533029556,-1.2510510683059692,1.1527018547058105
1771038402913496300,0.939496337890625,-0.12247838824987411,-1.6267329454421997,0.80389803647995
1771038402932464400,0.95846435546875,-0.22754712402820587,-1.582750678062439,0.6169734001159668
1771038402951432700,0.9774326171875,-0.3277289569377899,-1.1221586465835571,0.4404335021972656
1771038402970400800,0.99640087890625,-0.41935867071151733,-0.5986474752426147,0.012217295356094837
1771038402989368800,1.015368896484375,-0.5885682106018066,-0.235793799161911,-0.4111120104789734
1771038403008337000,1.0343369140625,-0.7107411623001099,0.023823726922273636,-0.6310232877731323
1771038403027305200,1.05330517578125,-0.6863065958023071,-0.25045454502105713,-0.7269290685653687
1771038403046273300,1.072273193359375,-0.5561923980712891,-0.6792816519737244,-0.5314523577690125
1771038403065241300,1.091241455078125,-0.41447174549102783,-1.026863694190979,-0.22418737411499023
1771038403084209400,1.11020947265625,-0.3087921440601349,-1.174692988395691,-0.08552107214927673
1771038403103177700,1.129177734375,-0.20311254262924194,-1.2174534797668457,-0.15760311484336853
1771038403122145800,1.148145751953125,-0.11453714966773987,-1.0207550525665283,-0.3970620930194855
1771038403141113900,1.16711376953125,-0.1438586562871933,-0.6621774435043335,-0.721431314945221
1771038403160082000,1.18608203125,-0.2202167510986328,-0.3023780584335327,-1.145371437072754
1771038403179050200,1.20505029296875,-0.40958482027053833,-0.11117739230394363,-1.5589269399642944
1771038403198018300,1.224018310546875,-0.5433642268180847,0.049480047076940536,-1.9162827730178833
1771038403216986400,1.242986328125,-0.9257655739784241,0.09590577334165573,-1.8759657144546509
1771038403235954700,1.26195458984375,-1.396742343902588,-0.21991132199764252,-1.119104266166687
1771038403254922800,1.2809228515625,-2.0265438556671143,-0.8851430416107178,-0.2467893660068512
1771038403273890800,1.299890869140625,-2.8408267498016357,-1.2626575231552124,-0.20647229254245758
1771038403292859000,1.31885888671875,-2.4749186038970947,-1.9260566234588623,-0.3848448097705841
1771038403311827000,1.337826904296875,-1.7241657972335815,-1.9914191961288452,0.09712749719619751
1771038403330795300,1.356795166015625,-1.499367594718933,-1.8264856338500977,0.3964512348175049
1771038403349763300,1.375763427734375,-1.5250239372253418,-1.4666863679885864,0.32681265473365784
1771038403368731400,1.3947314453125,-1.499367594718933,-1.7470732927322388,0.4379900395870209
1771038403387699700,1.41369970703125,-1.4376702308654785,-2.878394842147827,1.0861176252365112
1771038403406667800,1.432667724609375,-1.2873975038528442,-3.3738062381744385,1.9346086978912354
1771038403425635800,1.4516357421875,-0.9330959320068359,-2.567464590072632,2.0054690837860107
1771038403444604200,1.470604248046875,-0.7113520503044128,-1.1099413633346558,1.1099413633346558
1771038403463572200,1.489572265625,-0.5543597936630249,0.47952884435653687,-0.039706211537122726
1771038403482540300,1.508540283203125,-0.7052434086799622,1.9804235696792603,-0.4972439408302307
1771038403501508400,1.52750830078125,-0.7993165850639343,2.8851144313812256,0.01954767294228077
1771038403520476700,1.5464765625,-0.17256930470466614,3.498422622680664,0.33231043815612793
1771038403539444700,1.56544482421875,-0.21349723637104034,4.029874801635742,0.5106829404830933
1771038403558412800,1.584412841796875,-0.5390881896018982,2.598007917404175,2.1856741905212402
1771038403577381000,1.603381103515625,-0.8060360550880432,-0.3042106628417969,3.14595365524292
1771038403596349200,1.62234912109375,-0.6411026120185852,-1.268766164779663,4.530173301696777
1771038403615317200,1.641317138671875,0.12736530601978302,-0.6927206516265869,5.05673885345459
1771038403634285300,1.660285400390625,0.9398154616355896,-0.21502439677715302,3.2711808681488037
1771038403653253600,1.679253662109375,1.17194402217865,-0.6835576891899109,1.063515543937683
1771038403672221700,1.6982216796875,0.9398154616355896,-0.46608981490135193,-0.23396120965480804
1771038403691189800,1.717189697265625,0.05345066636800766,0.5033525824546814,-0.5479456782341003
1771038403710158000,1.736157958984375,-0.6374374032020569,2.671922445297241,-0.8857539296150208
1771038403729126100,1.755126220703125,-0.5103775262832642,4.632187843322754,-1.444695234298706
1771038403748094500,1.774094482421875,-0.4150826036930084,5.910116672515869,-1.9688172340393066
1771038403767062500,1.7930625,-0.5885682106018066,5.933940410614014,-1.8179335594177246
1771038403831052800,1.857052734375,-0.01435532234609127,5.33162784576416,0.27855435013771057
1771038403850021000,1.876021240234375,-0.2660316228866577,5.313302040100098,0.8869756460189819
1771038403868989200,1.8949892578125,-0.602007269859314,5.362171173095703,1.2095122337341309
1771038403887957200,1.913957275390625,-0.8133664727210999,5.859415054321289,0.49602219462394714
1771038403906925600,1.932925537109375,-0.5568032264709473,6.400640964508057,-0.08918625861406326
1771038403925893600,1.9518935546875,0.08093958348035812,6.1538519859313965,0.33231043815612793
1771038403944861700,1.97086181640625,0.8139773011207581,5.358505725860596,1.1520910263061523
1771038403963830000,1.989830078125,1.101083755493164,4.53261661529541,1.3732240200042725
1771038403982798000,2.008798095703125,0.8750637769699097,3.369530200958252,1.3390156030654907
1771038404001766400,2.027766357421875,0.5708531141281128,2.8954989910125732,0.5949822664260864
1771038404020734500,2.046734375,0.5134318470954895,3.185049057006836,-0.5326740741729736
1771038404039702500,2.06570263671875,0.9251546859741211,3.3341000080108643,-1.2461642026901245
1771038404058670800,2.0846708984375,1.2623521089553833,2.830747365951538,-1.5943571329116821
1771038404077639000,2.103638916015625,1.3038908243179321,1.6029092073440552,-1.7006475925445557
1771038404096607200,2.122607177734375,1.2281436920166016,0.8307760953903198,-1.7580687999725342
1771038404115575300,2.1415751953125,1.2525782585144043,1.635895848274231,-2.0329580307006836
1771038404134543400,2.16054345703125,1.1560616493225098,2.5583016872406006,-2.3738205432891846
1771038404153511700,2.17951171875,0.8200859427452087,2.2064435482025146,-2.4886631965637207
1771038404172479700,2.198479736328125,0.4816668927669525,1.4648537635803223,-2.4972152709960938
1771038404191448000,2.217447998046875,0.17134757339954376,1.1129956245422363,-2.425133228302002
1771038404210416000,2.236416015625,0.003970621153712273,1.109330415725708,-2.138026714324951
1771038404229384400,2.255384521484375,0.012522728182375431,1.3463460206985474,-1.7763947248458862
1771038404248352500,2.2743525390625,0.012522728182375431,1.5393792390823364,-1.2620465755462646
1771038404267320800,2.29332080078125,-0.010690134018659592,1.750738501548767,-1.0177006721496582
1771038404286289000,2.312288818359375,-0.23915356397628784,1.266933560371399,-0.8820887207984924
1771038404305257000,2.331257080078125,-0.3185659945011139,0.7819069027900696,-0.6194168925285339
1771038404324225300,2.350225341796875,-0.07788526266813278,1.0445787906646729,-0.3970620930194855
1771038404343193600,2.369193603515625,0.15668681263923645,1.2486076354980469,-0.31642794609069824
1771038404362161700,2.38816162109375,0.12492185086011887,1.1398736238479614,-0.40317076444625854
1771038404381129700,2.407129638671875,-0.129197895526886,0.7476984858512878,-0.5754346251487732
1771038404400098000,2.42609814453125,-0.600785493850708,0.10506874322891235,-0.831997811794281
1771038404419066000,2.445066162109375,-1.027169108390808,-0.35796675086021423,-0.9847140312194824
1771038404438034400,2.464034423828125,-1.0882556438446045,-0.026878049597144127,-1.0201442241668701
1771038404457002800,2.483002685546875,-0.9416480660438538,0.5815432667732239,-1.0763437747955322
1771038404475970800,2.501970703125,-0.8109229803085327,0.6401863098144531,-1.0348049402236938
1771038404494939100,2.520939208984375,-0.8255837559700012,0.1893680840730667,-1.130099892616272
1771038404513907200,2.5399072265625,-0.9477567076683044,-0.28588470816612244,-1.3646719455718994
1771038404532875500,2.55887548828125,-0.9550870656967163,-0.45937031507492065,-1.450192928314209
1771038404551843600,2.577843505859375,-0.8341358304023743,-0.45937031507492065,-1.352454662322998
1771038404570812000,2.59681201171875,-0.6032289862632751,-0.18081597983837128,-1.2486076354980469
1771038404589780000,2.615780029296875,-0.3857611119747162,-0.1539379209280014,-1.176525592803955
1771038404608748300,2.634748291015625,-0.3601047992706299,-0.5143481492996216,-1.2229512929916382
1771038404627716600,2.653716552734375,-0.7620537877082825,-1.1777472496032715,-1.2608249187469482
1771038404646684700,2.6726845703125,-1.3362667560577393,-1.4245367050170898,-1.0861176252365112
1771038404665653000,2.691653076171875,-1.7150028944015503,-0.9101884961128235,-0.6243038177490234
1771038404684621000,2.71062109375,-1.8286237716674805,0.10629047453403473,-0.12583814561367035
1771038404703589400,2.72958935546875,-1.767537236213684,0.6585122346878052,0.360410213470459
1771038404722557400,2.748557373046875,-1.5757256746292114,0.3066541254520416,0.8026763200759888
1771038404741525800,2.76752587890625,-1.6282600164413452,-0.11606431007385254,0.6817250847816467
1771038404760494000,2.786494140625,-1.8237367868423462,-0.46059203147888184,0.49968740344047546
1771038404779462100,2.805462158203125,-1.83839750289917,-0.37262752652168274,0.5852084755897522
1771038404798430500,2.824430419921875,-1.4767656326293945,0.05253437161445618,0.8930842876434326
1771038404817398500,2.8433984375,-0.8390227556228638,0.31031930446624756,1.1691951751708984
1771038404836366800,2.862366943359375,-0.17562362551689148,0.18203771114349365,1.2021819353103638
1771038404855335200,2.881335205078125,0.3069595396518707,-0.3811796307563782,1.1557561159133911
1771038404874303500,2.900303466796875,0.46944957971572876,-1.0067051649093628,1.1789690256118774
1771038404893271600,2.919271484375,0.3900371491909027,-1.2986985445022583,1.3878847360610962
1771038404912239900,2.938239990234375,0.282524973154068,-0.9712749719619751,1.7886121273040771
1771038404931208200,2.957208251953125,0.28985533118247986,-0.0513126403093338,2.1306962966918945
1771038404950176500,2.976176513671875,0.24465134739875793,0.7269290685653687,2.3848161697387695
1771038404969144600,2.99514453125,0.10170898586511612,0.8002328872680664,2.4495677947998047
1771038404988113000,3.01411279296875,0.061391908675432205,0.6084213256835938,2.2980732917785645
1771038405007081200,3.033081298828125,0.24709481000900269,0.5229002237319946,2.0744967460632324
1771038405026049500,3.052049560546875,0.435241162776947,0.6035344004631042,1.8936808109283447
1771038405045017600,3.071017578125,0.6185005903244019,0.7574723362922668,1.7495167255401611
1771038405063986000,3.08998583984375,0.6368265151977539,0.7134900689125061,1.6334524154663086
1771038405082954200,3.108954345703125,0.3607156574726105,0.5913171172142029,1.3720022439956665
1771038405101922600,3.127922607421875,0.10537417232990265,0.7024945020675659,0.8491020202636719
1771038405120890600,3.146890625,-0.17684535682201385,0.8381064534187317,0.3396408259868622
1771038405139859000,3.16585888671875,-0.3075704276561737,0.9615011811256409,0.11728604137897491
1771038405158827300,3.1848271484375,-0.5983420610427856,1.1520910263061523,0.11484257876873016
1771038405177795600,3.203795654296875,-0.6435460448265076,1.1325433254241943,0.26878049969673157
1771038405196764000,3.222763916015625,-0.8915571570396423,0.998153030872345,0.401949018239975
1771038405215732200,3.241732177734375,-0.8817833065986633,0.8381064534187317,0.40927940607070923
1771038405234700300,3.2607001953125,-0.7706059217453003,1.1948515176773071,0.25411975383758545
1771038405253668600,3.279668701171875,-0.68386310338974,1.6077960729599,-0.0720820426940918
1771038405272637000,3.298636962890625,-0.5164861679077148,2.0244059562683105,-0.4618137776851654
1771038405291605200,3.317605224609375,-0.14996729791164398,2.227212905883789,-0.7599157691001892
1771038405310573600,3.336573486328125,0.6685914993286133,1.2046253681182861,-0.7990111112594604
1771038405329542000,3.3555419921875,1.665522813796997,-0.6585122346878052,-0.8356630206108093
1771038405348510200,3.37451025390625,2.2568399906158447,-1.811824917793274,-1.0861176252365112
1771038405367478500,3.393478515625,2.2397356033325195,-2.455676317214966,-1.275485634803772
1771038405386446800,3.41244677734375,2.056476354598999,-2.4935500621795654,-1.061682939529419
1771038405405415200,3.431415283203125,1.8829907178878784,-2.0598361492156982,-0.6597339510917664
1771038405424383500,3.450383544921875,1.6533055305480957,-1.4770710468292236,-0.7354812026023865
1771038405443351800,3.469351806640625,1.395520567893982,-0.9138537049293518,-1.0470222234725952
1771038405462320000,3.488320068359375,1.5274673700332642,-0.4630354940891266,-1.6029092073440552
1771038405481288400,3.507288330078125,1.472489595413208,-0.5803215503692627,-2.3322818279266357
1771038405500256800,3.5262568359375,1.2183698415756226,-0.6438514590263367,-3.037219762802124
1771038405519225000,3.54522509765625,0.8506292104721069,-1.461188554763794,-3.319439172744751
1771038405538193400,3.564193359375,1.0021237134933472,-1.1618647575378418,-3.117853879928589
1771038405557161700,3.58316162109375,1.5457932949066162,-0.370184063911438,-2.6975789070129395
1771038405576130000,3.602130126953125,1.6325361728668213,-0.07941242307424545,-2.572962522506714
1771038405595098400,3.621098388671875,1.479819893836975,-0.1905898153781891,-2.572962522506714
1771038405614066700,3.640066650390625,1.5054762363433838,-0.4618137776851654,-2.4911065101623535
1771038405633035000,3.659034912109375,1.7681480646133423,-0.9761618971824646,-2.3066253662109375
1771038405652003300,3.67800341796875,1.9355250597000122,-1.7287473678588867,-1.9596542119979858
1771038405670971600,3.6969716796875,1.8573343753814697,-1.7898337841033936,-1.6505566835403442
1771038405689940000,3.71593994140625,1.4785982370376587,-1.3072506189346313,-1.3927717208862305
1771038405708908300,3.734908203125,0.8127555847167969,-1.0848958492279053,-1.1740821599960327
1771038405727876600,3.753876708984375,0.49632763862609863,-0.9480621218681335,-0.8112284541130066
1771038405746845000,3.772844970703125,0.878728985786438,-0.9883792400360107,-0.2211330533027649
1771038405765813200,3.791813232421875,1.4260637760162354,-1.2437206506729126,0.056199558079242706
1771038405784781800,3.81078173828125,1.4272855520248413,-1.25715970993042,-0.3652971386909485
1771038405803750100,3.829750244140625,0.9556979537010193,-1.0384701490402222,-1.1239912509918213
1771038405822718500,3.848718505859375,0.536644697189331,-0.7977893948554993,-1.489288330078125
1771038405841686800,3.867686767578125,0.4218021333217621,-0.730594277381897,-1.1447606086730957
1771038405860655000,3.886655029296875,0.6221657991409302,-0.4740310609340668,-0.4263836145401001
1771038405879623400,3.90562353515625,0.7199041247367859,-0.5351175665855408,0.23457208275794983
1771038405898592000,3.924592041015625,0.33139413595199585,-0.711046576499939,0.4923570156097412
1771038405917560300,3.943560302734375,-0.4114174246788025,-0.8173370957374573,0.14660754799842834
1771038405936528600,3.962528564453125,-1.2812888622283936,-0.2809978127479553,-0.20402882993221283
1771038405955497000,3.9814970703125,-1.8225150108337402,0.1795942485332489,-0.15027274191379547
1771038405974465300,4.00046533203125,-1.9898920059204102,0.5705476999282837,0.3225366175174713
1771038405993433900,4.019433837890625,-2.0937390327453613,0.6340776681900024,0.8564324378967285
1771038406012402200,4.038402099609375,-2.2586724758148193,0.48991355299949646,1.2461642026901245
1771038406031370500,4.05737060546875,-2.4040584564208984,0.5717694163322449,1.4966187477111816
1771038406050338800,4.0763388671875,-2.6703953742980957,0.7159335017204285,1.5992439985275269
1771038406069307400,4.095307373046875,-3.093113899230957,0.7440332770347595,1.6713260412216187
1771038406088275700,4.114275634765625,-3.3289077281951904,0.7464767694473267,1.7739512920379639
1771038406107244000,4.133244140625,-3.314246892929077,1.3878847360610962,1.7336342334747314
1771038406126212400,4.15221240234375,-3.1285438537597656,2.188117742538452,1.5112794637680054
1771038406145181000,4.171180908203125,-2.7363688945770264,2.8148648738861084,1.2913681268692017
1771038406164149200,4.190149169921875,-2.212246894836426,2.7794346809387207,1.100778341293335
1771038406183117600,4.20911767578125,-1.5012001991271973,2.138026714324951,0.695164144039154
1771038406202086100,4.228086181640625,-0.5971203446388245,1.2901464700698853,0.03787361457943916
1771038406221054500,4.247054443359375,0.26908594369888306,0.5925388336181641,-0.526565432548523
1771038406240022800,4.266022705078125,0.9019418358802795,0.3042106628417969,-0.7880155444145203
1771038406258991000,4.2849912109375,1.1670571565628052,0.2052505612373352,-0.813671886920929
1771038406277959700,4.303959716796875,1.1071923971176147,0.34208428859710693,-0.7635809779167175
1771038406296928000,4.322927978515625,0.8506292104721069,0.5790998339653015,-0.665842592716217
1771038406315896300,4.341896240234375,0.5488619804382324,0.8576541543006897,-0.5180133581161499
1771038406334865000,4.360864990234375,0.3753764033317566,1.1594213247299194,-0.38850998878479004
1771038406353833200,4.379833251953125,0.3631591200828552,1.4098758697509766,-0.3555232882499695
1771038406372801500,4.398801513671875,0.44868019223213196,1.5833615064620972,-0.43493571877479553
1771038406391770000,4.41777001953125,0.5207622051239014,1.8448116779327393,-0.5583304166793823
1771038406410738400,4.436738525390625,0.4523453712463379,1.8081597089767456,-0.8051197528839111
1771038406429706800,4.455706787109375,0.5586358308792114,1.5638138055801392,-0.9688315391540527
1771038406448675300,4.47467529296875,0.785877525806427,1.451414704322815,-0.962722897529602
1771038406467643600,4.4936435546875,0.9019418358802795,1.1129956245422363,-0.8552106618881226
1771038406486612200,4.5126123046875,0.9923498630523682,0.6817250847816467,-0.5387827157974243
1771038406505580500,4.53158056640625,0.9703587293624878,0.9834923148155212,0.20280711352825165
1771038406524549000,4.550549072265625,0.5415316224098206,1.304807186126709,1.100778341293335
1771038406543517400,4.569517333984375,0.06994401663541794,0.7977893948554993,2.0292928218841553
1771038406562485800,4.58848583984375,0.1591302752494812,0.17837251722812653,2.8991641998291016
1771038406581454300,4.607454345703125,0.6368265151977539,-0.5045742988586426,3.286452531814575
1771038406600422700,4.626422607421875,1.266017198562622,-0.7476984858512878,3.062875986099243
1771038406619391000,4.645390869140625,1.8732168674468994,-0.6010909676551819,2.503323793411255
1771038406638359600,4.664359619140625,2.4523167610168457,-0.9480621218681335,1.8704679012298584
1771038406657327900,4.683327880859375,2.987434148788452,-1.3768892288208008,1.3829978704452515
1771038406676296400,4.70229638671875,3.17435884475708,-1.8057162761688232,1.0641264915466309
1771038406695264800,4.7212646484375,2.9739952087402344,-2.720791816711426,0.9798271059989929
1771038406723717400,4.74971728515625,2.93123459815979,-3.4183993339538574,1.4098758697509766
1771038406742686000,4.76868603515625,3.300196886062622,-2.3518292903900146,1.6420044898986816
1771038406761654300,4.787654296875,2.944673776626587,-1.665217399597168,1.6285655498504639
1771038406780622800,4.806622802734375,2.201862096786499,-1.6701042652130127,1.6114612817764282
1771038406799591200,4.825591064453125,1.959959626197815,-2.7000222206115723,2.1416919231414795
1771038406818559700,4.844559814453125,1.6423099040985107,-2.8368561267852783,2.386037826538086
1771038406837528000,4.863528076171875,1.3625339269638062,-1.9364413022994995,2.073275089263916
1771038406856496400,4.882496337890625,1.3527600765228271,-1.0519092082977295,1.7006475925445557
1771038406875465000,4.90146484375,1.0106757879257202,-0.8161153197288513,1.3451242446899414
1771038406894433500,4.92043359375,0.8359684348106384,-0.7073814272880554,0.8979712128639221
1771038406913401900,4.93940185546875,0.8200859427452087,-1.0409135818481445,0.6304124593734741
1771038406932370200,4.9583701171875,0.6869174242019653,-1.3060288429260254,0.5241219997406006
1771038406951338800,4.9773388671875,0.28008151054382324,-1.1362085342407227,0.5986474752426147
1771038406970307000,4.99630712890625,-0.30024003982543945,-0.7318159937858582,0.7855721116065979
1771038406989275600,5.015275634765625,-0.4969384968280792,-0.24923282861709595,0.8710931539535522
1771038407008244000,5.034243896484375,-0.23915356397628784,0.013439024798572063,0.7147117853164673
1771038407027212500,5.053212646484375,0.33017241954803467,-0.2761108875274658,0.23212862014770508
1771038407046180900,5.072180908203125,1.0021237134933472,-0.8197805285453796,-0.22846342623233795
1771038407065149400,5.0911494140625,1.4676026105880737,-1.2510510683059692,-0.4776962697505951
1771038407084117800,5.11011767578125,1.7033964395523071,-1.362228512763977,-0.675616443157196
1771038407103086300,5.12908642578125,1.7791436910629272,-1.3353503942489624,-0.8894191384315491
1771038407122054700,5.1480546875,1.7388266324996948,-1.3158026933670044,-1.0702351331710815
1771038407141023200,5.167023193359375,1.7119485139846802,-1.296255111694336,-1.2266165018081665
1771038407159991600,5.185991455078125,1.9526292085647583,-1.3634501695632935,-1.3732240200042725
1771038407178960100,5.204960205078125,2.293491840362549,-1.5051708221435547,-1.507614254951477
1771038407197928400,5.223928466796875,2.4828598499298096,-1.556483507156372,-1.6187916994094849
1771038407216897000,5.24289697265625,2.360687017440796,-1.536935806274414,-1.6994258165359497
1771038407235865300,5.261865234375,1.9538509845733643,-1.3842196464538574,-1.6383392810821533
1771038407254834000,5.280833984375,1.4468332529067993,-0.998153030872345,-1.4110976457595825
1771038407273802200,5.29980224609375,0.9666935205459595,-0.5436696410179138,-1.0787872076034546
1771038407292770800,5.318770751953125,0.5574141144752502,-0.27855435013771057,-0.7745765447616577
1771038407311739100,5.3377392578125,0.282524973154068,-0.2309068888425827,-0.5497782826423645
1771038407330707700,5.356707763671875,0.11392628401517868,-0.4471530318260193,-0.3298669755458832
1771038407349676000,5.375676025390625,-0.03390299528837204,-0.7733548283576965,-0.10629047453403473
1771038407368644600,5.39464453125,-0.2098320573568344,-0.7660244107246399,-0.050090912729501724
1771038407387613000,5.413613037109375,-0.2733619809150696,-0.5632173418998718,-0.1380554437637329
1771038407406581500,5.43258154296875,-0.20738859474658966,-0.5045742988586426,-0.18570289015769958
1771038407425549800,5.4515498046875,-0.09376774728298187,-0.7770199775695801,-0.0818558782339096
1771038407444518400,5.470518310546875,-0.323452889919281,-0.7098248600959778,-0.046425722539424896
1771038407463486700,5.48948681640625,-0.961195707321167,-0.11606431007385254,-0.10629047453403473
1771038407482455300,5.508455322265625,-1.4205660820007324,0.5693259835243225,-0.06230820715427399
1771038407501423600,5.527423583984375,-1.3545926809310913,1.1252129077911377,0.10506874322891235
1771038407520392200,5.54639208984375,-0.8341358304023743,0.972496747970581,0.235793799161911
1771038407539360500,5.565360595703125,-0.10720676928758621,0.18570289015769958,0.09896009415388107
1771038407558329000,5.5843291015625,0.7919861674308777,-0.5705476999282837,-0.19181154668331146
1771038407577297400,5.60329736328125,1.8829907178878784,-1.043357014656067,-0.4728093445301056
1771038407596266000,5.622265869140625,2.503629207611084,-1.3536763191223145,-0.720820426940918
1771038407615234300,5.641234375,2.551276683807373,-1.3060288429260254,-0.8271108865737915
1771038407634202600,5.66020263671875,2.3619086742401123,-0.7770199775695801,-0.6841685771942139
1771038407653171200,5.679171142578125,2.1310017108917236,-0.15638138353824615,-0.2993237376213074
1771038407672139800,5.698139892578125,1.9245294332504272,0.27366742491722107,-0.004886918235570192
1771038407691108000,5.717108154296875,1.7999130487442017,0.39828383922576904,-0.04153880476951599
1771038407710076700,5.73607666015625,1.842673659324646,0.13072505593299866,-0.3298669755458832
1771038407729045000,5.755044921875,1.9489641189575195,-0.08307760953903198,-0.6743947267532349
1771038407748013600,5.774013671875,2.0381503105163574,-0.13683371245861053,-0.8906408548355103
1771038407766982000,5.79298193359375,1.832899808883667,-0.24434591829776764,-0.8442151546478271
1771038407785950500,5.811950439453125,1.2159262895584106,-0.17104214429855347,-0.6817250847816467
1771038407804918800,5.830918701171875,0.5109884142875671,-0.006108647678047419,-0.45937031507492065
1771038407823887400,5.849887451171875,-0.08643736690282822,-0.21502439677715302,-0.37629270553588867
1771038407842855700,5.868855712890625,-0.4224129915237427,-0.6805033683776855,-0.35796675086021423
1771038407861824300,5.88782421875,-0.2733619809150696,-1.0177006721496582,-0.1844811588525772
1771038407880792600,5.90679248046875,0.18723005056381226,-0.9004147052764893,-0.004886918235570192
1771038407899761200,5.92576123046875,0.7296779751777649,-0.5803215503692627,-0.009773836471140385
1771038407918729500,5.9447294921875,1.5201369524002075,-1.1716386079788208,0.03787361457943916
1771038407937698000,5.963697998046875,2.352134943008423,-1.7898337841033936,-0.22724169492721558
1771038407956666400,5.982666259765625,2.682001829147339,-1.5442661046981812,-0.8271108865737915
1771038407975635000,6.001635009765625,2.3509130477905273,-1.0763437747955322,-1.1972949504852295
1771038407994603300,6.020603271484375,1.6716314554214478,-0.4679224193096161,-0.9407317638397217
1771038408013571600,6.039571533203125,1.237917423248291,0.17226386070251465,-0.2626718580722809
1771038408032540200,6.0585400390625,1.2354739904403687,0.574212908744812,0.21991132199764252
1771038408051508500,6.077508544921875,1.2990039587020874,0.235793799161911,0.25411975383758545
1771038408070477000,6.09647705078125,1.1181880235671997,-0.17837251722812653,0.04276053607463837
1771038408089445400,6.1154453125,0.39736753702163696,-0.28954991698265076,0.012217295356094837
1771038408108414000,6.1344140625,-0.5580250024795532,0.2370155304670334,0.45448338985443115
1771038408127382300,6.15338232421875,-1.350927472114563,1.0702351331710815,0.9651663303375244
1771038408146350600,6.1723505859375,-1.8616104125976562,1.8350378274917603,1.2021819353103638
1771038408165319200,6.191319091796875,-1.9666792154312134,2.4495677947998047,1.3194679021835327
1771038408184287700,6.210287841796875,-1.535408616065979,2.8735079765319824,1.2815942764282227
1771038408203256000,6.229256103515625,-0.8732311725616455,2.976133108139038,0.9028581380844116
1771038408222224600,6.248224609375,-0.3026835024356842,2.4214680194854736,0.3347539007663727
1771038408241193000,6.26719287109375,0.007635809946805239,1.313359260559082,-0.12461641430854797
1771038408260161300,6.286161376953125,-0.16584978997707367,0.6646208763122559,-0.1026252806186676
1771038408279129900,6.3051298828125,-0.78648841381073,0.9175189137458801,0.3860665261745453
1771038408298098200,6.32409814453125,-1.6099340915679932,1.8802417516708374,0.8026763200759888
1771038408317066800,6.343066650390625,-2.5140140056610107,2.8845036029815674,1.1423171758651733
1771038408336035000,6.36203515625,-3.2922556400299072,3.235139846801758,1.869246244430542
1771038408355003600,6.381003662109375,-3.8566946983337402,2.824638843536377,3.050658702850342
1771038408373972000,6.399971923828125,-4.251313209533691,2.129474639892578,4.372570037841797
1771038408392940300,6.418940185546875,-4.167014122009277,1.8154901266098022,5.375609874725342
1771038408411908900,6.437908935546875,-3.7870562076568604,2.0402884483337402,6.222268581390381
1771038408430877200,6.456877197265625,-3.523162603378296,2.2980732917785645,7.048157691955566
1771038408449845800,6.475845703125,-2.958723545074463,2.2479825019836426,7.717665672302246
1771038408468814000,6.49481396484375,-2.031430721282959,1.760512351989746,7.948572635650635
1771038408487782700,6.51378271484375,-1.3057234287261963,1.546709656715393,7.443998336791992
1771038408506751000,6.5327509765625,-1.0430516004562378,1.887572169303894,6.147743225097656
1771038408525719600,6.551719482421875,-0.9941824078559875,2.4825544357299805,4.2516188621521
1771038408544687900,6.57068798828125,-0.7571669220924377,2.8515167236328125,2.1746785640716553
1771038408563656200,6.58965625,-0.36132651567459106,2.8735079765319824,0.4422661066055298
1771038408582624800,6.608624755859375,-0.025350889191031456,2.813643217086792,-0.9260709881782532
1771038408601593000,6.627593017578125,0.2776380479335785,2.4849979877471924,-2.0891575813293457
1771038408620561700,6.646561767578125,0.6380482912063599,1.8093814849853516,-2.65970516204834
1771038408639530000,6.665530029296875,0.805425226688385,1.1875211000442505,-2.4581198692321777
1771038408658498600,6.68449853515625,0.6148353815078735,0.943175196647644,-2.6426010131835938
1771038408677467000,6.703466796875,0.18112140893936157,0.8258891701698303,-3.2705700397491455
1771038408696435200,6.722435302734375,-0.36254823207855225,1.0946696996688843,-3.3548693656921387
1771038408715403800,6.74140380859375,-0.9306524991989136,1.5540399551391602,-2.878394842147827
1771038408734372000,6.7603720703125,-1.2470804452896118,1.7470732927322388,-2.500880479812622
1771038408753340700,6.779340576171875,-1.1444551944732666,1.4538581371307373,-2.7867650985717773
1771038408772309000,6.79830908203125,-1.138346552848816,0.94439697265625,-3.0665411949157715
1771038408791277300,6.81727734375,-1.339931845664978,0.5522217750549316,-2.9724678993225098
1771038408810246000,6.836245849609375,-1.4938697814941406,0.5754346251487732,-3.1923792362213135
1771038408829214200,6.855214111328125,-1.4242312908172607,0.5534434914588928,-3.8203482627868652
1771038408848182800,6.874182861328125,-1.0662645101547241,0.28954991698265076,-4.629133224487305
1771038408867151000,6.893151123046875,-0.5164861679077148,-0.07819069176912308,-5.268097877502441
1771038408886119700,6.91211962890625,-0.2965748608112335,-0.28466299176216125,-5.445248603820801
1771038408905088000,6.931087890625,-0.7009673118591309,-0.4373791813850403,-4.83927059173584
1771038408924056300,6.950056396484375,-1.0149518251419067,-0.08674279600381851,-3.8545567989349365
1771038408943025000,6.96902490234375,-0.7632755637168884,0.24434591829776764,-3.430616617202759
1771038408961993200,6.9879931640625,-0.46517354249954224,0.3335321843624115,-3.45871639251709
1771038408980961500,7.00696142578125,-0.3246746361255646,0.26022839546203613,-3.7617053985595703
1771038408999930000,7.02593017578125,-0.28069236874580383,0.20280711352825165,-4.1648759841918945
1771038409018898400,7.0448984375,-0.34666576981544495,0.2101374864578247,-4.3493571281433105
1771038409037867000,7.063866943359375,-0.7388409376144409,0.952949047088623,-3.9742863178253174
1771038409056835300,7.08283544921875,-1.5036436319351196,1.5943571329116821,-3.0323326587677
1771038409075803600,7.1018037109375,-2.1645994186401367,1.9291110038757324,-1.8130466938018799
1771038409094772200,7.120772216796875,-2.5274529457092285,1.859472393989563,-0.8930842876434326
1771038409113740500,7.139740478515625,-2.9794929027557373,1.7006475925445557,-0.3481929302215576
1771038409132709000,7.158709228515625,-3.4376416206359863,1.3915499448776245,0.034208428114652634
1771038409151677400,7.177677490234375,-3.629453182220459,1.2058470249176025,0.43860089778900146
1771038409170645800,7.196645751953125,-3.7907214164733887,0.9590576887130737,0.8930842876434326
1771038409189614000,7.215614013671875,-3.9800894260406494,0.6352993845939636,1.2632683515548706
1771038409208582700,7.234582763671875,-4.074162483215332,0.3042106628417969,1.5528182983398438
1771038409227551000,7.253551025390625,-4.107149124145508,-0.19303326308727264,1.8435899019241333
1771038409246519300,7.272519287109375,-4.090044975280762,-1.0152572393417358,2.2088871002197266
1771038409265488000,7.29148779296875,-3.9471027851104736,-1.8558071851730347,2.5546364784240723
1771038409284456200,7.310456298828125,-3.842034101486206,-2.266308307647705,2.9651377201080322
1771038409303424800,7.3294248046875,-3.917781352996826,-2.2333216667175293,3.599215269088745
1771038409322393000,7.34839306640625,-4.03018045425415,-2.3176209926605225,4.428769588470459
1771038409341361400,7.367361328125,-3.853029489517212,-2.6108360290527344,5.092168807983398
1771038409360330000,7.386330078125,-3.5549275875091553,-3.004232883453369,5.4000444412231445
1771038409379298300,7.40529833984375,-3.4694066047668457,-3.497811794281006,5.468461513519287
1771038409398266600,7.4242666015625,-3.3289077281951904,-3.532020092010498,5.60040807723999
1771038409417235200,7.443235107421875,-3.2226171493530273,-3.176496744155884,5.96326208114624
1771038409436203500,7.46220361328125,-3.0980007648468018,-2.7708826065063477,6.28213357925415
1771038409455171800,7.481171875,-2.7339253425598145,-2.2259912490844727,6.0927653312683105
1771038409474140200,7.50014013671875,-2.1364996433258057,-2.0134103298187256,5.507556915283203
1771038409493108700,7.519108642578125,-1.517082691192627,-1.7519601583480835,4.72809362411499
1771038409512077000,7.5380771484375,-0.9147700071334839,-1.3964369297027588,3.775144338607788
1771038409531045400,7.55704541015625,-0.4969384968280792,-1.2498292922973633,2.65970516204834
1771038409550014000,7.576013916015625,-0.3491092324256897,-1.1740821599960327,1.693317174911499
1771038409568982300,7.594982177734375,-0.2208276242017746,-1.0030399560928345,1.422093152999878
1771038409587950600,7.61395068359375,-0.1853974610567093,-0.813671886920929,1.3842196464538574
1771038409606919200,7.632919189453125,-0.3845393657684326,-0.5668824911117554,1.1728603839874268
1771038409625887500,7.651887451171875,-0.5067123174667358,-0.25411975383758545,0.8124501705169678
1771038409644855800,7.670855712890625,-0.5042688846588135,-0.004886918235570192,0.3811796307563782
1771038409663824100,7.68982421875,-0.4529562294483185,0.06719512492418289,0.028099779039621353
1771038409682792700,7.708792724609375,-0.33567020297050476,0.05742128938436508,-0.2162461280822754
1771038409701761000,7.727760986328125,-0.2415970265865326,0.04276053607463837,-0.5057960152626038
1771038409720729300,7.746729248046875,-0.15118902921676636,0.13927717506885529,-1.0983349084854126
1771038409739697700,7.76569775390625,-0.02779434807598591,0.21380266547203064,-1.731190800666809
1771038409758666200,7.784666259765625,0.09193515032529831,0.1698204129934311,-2.1502439975738525
1771038409777634600,7.803634521484375,0.1127045527100563,0.050090912729501724,-2.288299560546875
1771038409796603000,7.822602783203125,0.014966187067329884,0.19425499439239502,-2.2394301891326904
1771038409815571200,7.8415712890625,-0.0009162971982732415,0.5204567909240723,-2.1551308631896973
1771038409834539800,7.860539794921875,0.16768237948417664,0.7721330523490906,-2.2235476970672607
1771038409853508000,7.879508056640625,0.39858928322792053,0.7696896195411682,-2.35305118560791
1771038409872476400,7.898476318359375,0.5671879649162292,0.4569268524646759,-2.3591597080230713
1771038409891444700,7.91744482421875,0.732121467590332,0.20769402384757996,-2.2785255908966064
1771038409910413000,7.9364130859375,0.7589994668960571,0.13194678723812103,-2.3677117824554443
1771038409929381600,7.955381591796875,0.6148353815078735,0.1954767256975174,-2.5778493881225586
1771038409948350000,7.974349853515625,0.6514872908592224,0.36285367608070374,-2.637714147567749
1771038409967318300,7.993318359375,0.9239329695701599,0.5253437161445618,-2.3628249168395996
1771038409986286600,8.01228662109375,1.130405306816101,0.851545512676239,-2.3017385005950928
1771038410005255000,8.0312548828125,1.082757830619812,1.3854413032531738,-2.733009099960327
1771038410024223500,8.050223388671874,0.9935715794563293,1.6224569082260132,-3.202153205871582
1771038410043191800,8.06919189453125,1.0106757879257202,1.5711442232131958,-3.213148832321167
1771038410062160100,8.08816015625,1.2611303329467773,1.5845832824707031,-2.802647590637207
1771038410081128400,8.10712841796875,1.237917423248291,1.5760310888290405,-2.138026714324951
1771038410100096800,8.1260966796875,0.7333431839942932,1.9401065111160278,-1.7763947248458862
1771038410119065000,8.145065185546875,0.2214384824037552,2.338390350341797,-1.9718714952468872
1771038410138033700,8.16403369140625,0.08949168771505356,2.023184061050415,-2.302960157394409
1771038410157002000,8.183001953125,0.43279770016670227,1.166751742362976,-2.475224018096924
1771038410175970300,8.20197021484375,1.0473276376724243,0.6084213256835938,-2.6890268325805664
1771038410194938600,8.220938720703124,1.5457932949066162,0.750141978263855,-2.9101598262786865
1771038410213907000,8.239906982421875,1.7180571556091309,1.2046253681182861,-3.0188937187194824
1771038410232875300,8.258875244140626,1.8744385242462158,1.5894701480865479,-3.1496188640594482
1771038410251843600,8.277843505859375,2.2372922897338867,1.4550799131393433,-3.128849506378174
1771038410270812000,8.29681201171875,2.7699663639068604,0.9615011811256409,-3.037219762802124
1771038410289780500,8.315780517578125,2.9568910598754883,0.9407317638397217,-2.9345943927764893
1771038410308748800,8.334748779296875,2.5292856693267822,1.1716386079788208,-2.8515167236328125
1771038410327717000,8.353717041015624,1.9098687171936035,1.3206896781921387,-2.526536703109741
1771038410346685400,8.372685546875,1.3747512102127075,1.654221773147583,-2.1135921478271484
1771038410365653800,8.39165380859375,0.952032744884491,1.9181153774261475,-1.7971642017364502
1771038410384622000,8.4106220703125,0.6429351568222046,1.8387030363082886,-1.6982040405273438
1771038410403590400,8.42959033203125,0.4523453712463379,1.5772528648376465,-1.839924693107605
1771038410422558700,8.448558837890625,0.39370235800743103,1.2058470249176025,-2.227212905883789
1771038410441527000,8.467527099609375,0.38759371638298035,0.8649845123291016,-2.7085745334625244
1771038410460495400,8.486495361328124,0.5732966065406799,0.7220421433448792,-2.9859070777893066
1771038410479463700,8.505463623046875,0.7895427346229553,0.778241753578186,-2.8429646492004395
1771038410498432000,8.524431884765624,0.6221657991409302,1.1533126831054688,-2.2149956226348877
1771038410517400600,8.543400634765625,0.189673513174057,1.8154901266098022,-1.4868448972702026
1771038410536368600,8.56236865234375,-0.1438586562871933,2.4092507362365723,-0.9492838382720947
1771038410555337000,8.5813369140625,-0.48594292998313904,2.839299440383911,-0.5656607747077942
1771038410574305300,8.60030517578125,-1.1322379112243652,2.995680809020996,-0.4263836145401001
1771038410593273900,8.61927392578125,-1.76875901222229,2.305403709411621,-0.7464767694473267
1771038410612242200,8.6382421875,-1.8286237716674805,1.1740821599960327,-1.3768892288208008
1771038410631210200,8.657210205078124,-1.4034618139266968,0.18325942754745483,-2.0244059562683105
1771038410650178600,8.676178466796875,-1.0748165845870972,0.003665188793092966,-2.355494499206543
1771038410669147000,8.69514697265625,-1.1872156858444214,0.48991355299949646,-2.383594274520874
1771038410688115200,8.714115234375,-1.497534990310669,1.0286962985992432,-2.268751859664917
1771038410707083500,8.73308349609375,-1.7186681032180786,1.3377938270568848,-2.1697916984558105
1771038410726051800,8.7520517578125,-1.747989535331726,1.3732240200042725,-2.0806055068969727
1771038410745020200,8.771020263671875,-1.634368658065796,1.342680811882019,-2.0097451210021973
1771038410763988500,8.789988525390624,-1.5109740495681763,1.148425817489624,-2.0207407474517822
1771038410782956800,8.808956787109375,-1.3619229793548584,0.8442151546478271,-2.2052218914031982
1771038410801925000,8.827925048828124,-1.1126902103424072,0.5656607747077942,-2.546084403991699
1771038410820893400,8.8468935546875,-0.814588189125061,0.18081597983837128,-2.744004487991333
1771038410839861800,8.86586181640625,-0.4883863925933838,-0.3640754222869873,-2.7623305320739746
1771038410858830000,8.884830078125,-0.1597411334514618,-1.043357014656067,-2.690248489379883
1771038410877798400,8.90379833984375,0.15790854394435883,-1.616348147392273,-2.49843692779541
1771038410896766700,8.9227666015625,0.47067132592201233,-2.036623239517212,-2.1868958473205566
1771038410915735000,8.941735107421875,0.7137954831123352,-2.403141975402832,-1.7617340087890625
1771038410934703400,8.960703369140624,0.8933897614479065,-2.8490734100341797,-1.2217295169830322
1771038410953671700,8.979671630859375,1.101083755493164,-3.0604324340820312,-0.370184063911438
1771038410972639700,8.9986396484375,1.1878265142440796,-2.691470146179199,0.8943060636520386
1771038410991608000,9.017608154296875,0.8005383014678955,-2.140470266342163,2.8063127994537354
1771038411010576400,9.036576416015626,0.19822561740875244,-1.692095398902893,4.980991363525391
1771038411029544700,9.055544677734375,0.06261363625526428,-1.422093152999878,6.669421672821045
1771038411048513000,9.074512939453125,0.5024362802505493,-0.9468404054641724,7.5820536613464355
1771038411067481300,9.0934814453125,1.071762204170227,-0.32009315490722656,7.742100238800049
1771038411086449700,9.11244970703125,1.6019928455352783,0.1893680840730667,7.430559158325195
1771038411105417700,9.131417724609374,2.162766695022583,0.1282816082239151,6.781820774078369
1771038411124386000,9.150385986328125,2.7479751110076904,-0.28466299176216125,5.8496413230896
1771038411143354400,9.169354248046876,3.361283540725708,-0.564439058303833,4.776962757110596
1771038411162322700,9.18832275390625,3.682598352432251,-0.6059778332710266,3.872882604598999
1771038411181291000,9.207291015625,3.5787513256073,-0.45937031507492065,3.2730135917663574
1771038411200259300,9.22625927734375,3.2672102451324463,0.0818558782339096,2.883281707763672
1771038411219227600,9.2452275390625,2.9605562686920166,1.0225876569747925,2.6230533123016357
1771038411238195700,9.26419580078125,2.777296781539917,1.8179335594177246,2.500880479812622
1771038411257164000,9.2831640625,2.8066182136535645,2.2027783393859863,2.4544546604156494
1771038411276132400,9.30213232421875,3.0778422355651855,2.302960157394409,2.4019203186035156
1771038411295100700,9.3211005859375,3.476125955581665,2.218660831451416,2.274860382080078
1771038411314069000,9.340069091796876,3.825540781021118,1.8900156021118164,2.0207407474517822
1771038411333037000,9.359037109375,4.204277038574219,1.4343105554580688,1.5919135808944702
1771038411352005400,9.37800537109375,4.718625068664551,0.9749401807785034,1.120326042175293
1771038411370973700,9.3969736328125,4.940979957580566,0.44348782300949097,0.5485565662384033
1771038411389942000,9.41594189453125,4.711294651031494,-0.2309068888425827,-0.2565632164478302
1771038411408910000,9.43491015625,4.190837860107422,-0.18203771114349365,-0.8784235715866089
1771038411427878400,9.45387841796875,3.4944519996643066,0.934623122215271,-0.5253437161445618
1771038411446846700,9.4728466796875,3.015533924102783,1.7385212182998657,1.000596523284912
1771038411465815000,9.49181494140625,2.29960036277771,2.933372735977173,1.7947207689285278
1771038411484783000,9.510783203125,1.101083755493164,3.959625482559204,1.1789690256118774
1771038411503751400,9.52975146484375,0.4108065664768219,4.144106864929199,0.24312418699264526
1771038411522719700,9.5487197265625,0.38759371638298035,4.057363986968994,-0.5412262082099915
1771038411541688000,9.56768798828125,0.8090903759002686,4.08424186706543,-1.1533126831054688
1771038411560656100,9.58665625,1.5470150709152222,4.372570037841797,-1.9804235696792603
1771038411579624400,9.60562451171875,2.1591014862060547,4.653567790985107,-3.011563301086426
1771038411608076800,9.634076904296874,2.8982479572296143,4.207636833190918,-4.065916061401367
1771038411627045000,9.653045166015625,3.3466227054595947,3.596771717071533,-4.294379234313965
1771038411646013200,9.67201318359375,3.454134941101074,2.967581033706665,-4.260170936584473
1771038411664981500,9.6909814453125,3.1890196800231934,2.9639158248901367,-4.137998104095459
1771038411683949800,9.70994970703125,2.553720235824585,3.560119867324829,-3.816683053970337
1771038411702918000,9.72891796875,1.4004075527191162,4.350578784942627,-2.878394842147827
1771038411721886200,9.74788623046875,-0.3759872615337372,4.7097673416137695,-1.4758492708206177
1771038411740854500,9.7668544921875,-2.068082809448242,4.236958026885986,-0.13683371245861053
1771038411759822600,9.785822509765625,-3.422980785369873,3.020115375518799,0.5619956254959106
1771038411778791000,9.804791015625,-4.103484153747559,1.490510106086731,0.4263836145401001
1771038411797759000,9.823759033203125,-3.846920967102051,0.7281508445739746,-0.4373791813850403
1771038411816727300,9.842727294921875,-3.244608163833618,0.4007273018360138,-1.6224569082260132
1771038411835695600,9.861695556640624,-2.802342176437378,0.003665188793092966,-2.1856741905212402
1771038411854663700,9.88066357421875,-2.5274529457092285,-0.1893680840730667,-1.8423681259155273
1771038411873632000,9.899632080078124,-2.632521867752075,-0.0818558782339096,-1.4819579124450684
1771038411892600300,9.918600341796875,-3.1590871810913086,0.14782927930355072,-1.470962405204773
1771038411911568400,9.937568359375,-3.7687301635742188,0.1380554437637329,-1.433088779449463
1771038411930536700,9.95653662109375,-3.9348855018615723,0.059864748269319534,-1.3353503942489624
1771038411949504800,9.9755048828125,-3.8762423992156982,-0.25411975383758545,-1.2522728443145752
1771038411968473000,9.99447314453125,-3.967872142791748,-1.0091485977172852,-0.9053016304969788
1771038411987441400,10.01344140625,-4.476111888885498,-1.5711442232131958,-0.32131487131118774
1771038412006409500,10.032409423828126,-5.414400100708008,-1.6187916994094849,0.09529490768909454
1771038412025377500,10.05137744140625,-6.506626129150391,-1.5699224472045898,0.45448338985443115
1771038412044345900,10.070345947265626,-7.045408725738525,-1.2315033674240112,1.284037709236145
1771038412063314200,10.089314208984375,-6.908575057983398,-0.2101374864578247,2.8759512901306152
1771038412082282200,10.1082822265625,-6.11811637878418,0.2822195291519165,4.2650580406188965
1771038412101250600,10.12725048828125,-5.008785724639893,-0.026878049597144127,4.607141971588135
1771038412120218600,10.146218505859375,-3.690539598464966,-0.6218603253364563,4.11234188079834
1771038412139187000,10.16518701171875,-2.422384262084961,-1.099556565284729,3.2815656661987305
1771038412158155300,10.1841552734375,-1.5036436319351196,-1.2217295169830322,2.6890268325805664
1771038412177123300,10.203123291015626,-0.9673043489456177,-1.3439024686813354,2.5888450145721436
1771038412196091600,10.222091552734375,-0.6398808360099792,-1.4563016891479492,2.676809549331665
1771038412215059700,10.241059814453125,-0.374765545129776,-1.361006736755371,2.7733261585235596
1771038412234028000,10.260028076171874,-0.12064579129219055,-1.176525592803955,2.9101598262786865
1771038412252996000,10.27899609375,0.1493564397096634,-1.0470222234725952,3.034776210784912
1771038412271964400,10.29796435546875,0.47555822134017944,-0.8185588121414185,2.869842767715454
1771038412290932500,10.316932373046875,0.7870992422103882,-0.5827649831771851,2.6145012378692627
1771038412309900800,10.33590087890625,0.9471458196640015,-0.23335035145282745,2.505767345428467
1771038412328868900,10.354868896484374,0.8432988524436951,0.10629047453403473,2.3432772159576416
1771038412347837200,10.373837158203125,0.4108065664768219,0.3836230933666229,1.9926408529281616
1771038412366805200,10.39280517578125,-0.05100720748305321,0.7757982611656189,1.64566969871521
1771038412385773300,10.411773193359375,-0.26480987668037415,1.1753038167953491,1.5344923734664917
1771038412404741600,10.43074169921875,-0.3698786199092865,1.5393792390823364,1.5711442232131958
1771038412423710000,10.4497099609375,-0.4114174246788025,1.7580687999725342,1.617569923400879
1771038412442678000,10.468677978515625,-0.09132428467273712,1.9022328853607178,1.450192928314209
1771038412461646000,10.48764599609375,0.6905826330184937,2.1478004455566406,1.0592395067214966
1771038412480614400,10.506614501953125,1.470046043395996,2.1795654296875,0.4068359434604645
1771038412499582500,10.52558251953125,2.0833542346954346,1.9596542119979858,-0.23335035145282745
1771038412518550800,10.54455078125,2.3826780319213867,1.6810998916625977,-0.5155698657035828
1771038412537518800,10.563518798828126,2.3228132724761963,1.5406010150909424,-0.7281508445739746
1771038412556487000,10.58248681640625,2.069915294647217,1.5589269399642944,-1.2693769931793213
1771038412575455200,10.601455322265625,1.8829907178878784,1.7360776662826538,-1.68354332447052
1771038412594423300,10.62042333984375,1.59832763671875,1.8460333347320557,-1.5015056133270264
1771038412613391600,10.6393916015625,0.9752455949783325,1.821598768234253,-0.8747583627700806
1771038412632359700,10.658359619140626,0.35094180703163147,1.9657628536224365,-0.5302306413650513
1771038412651327700,10.67732763671875,-0.004581485874950886,2.0940444469451904,-0.6194168925285339
1771038412670296000,10.696296142578126,-0.16707152128219604,1.792277216911316,-0.9993748068809509
1771038412689264000,10.71526416015625,-0.129197895526886,1.3573415279388428,-1.507614254951477
1771038412708232400,10.734232421875,-0.08521563559770584,1.4074324369430542,-1.6517783403396606
1771038412727200500,10.753200439453124,-0.11942406743764877,1.6346741914749146,-1.3365721702575684
1771038412746168600,10.77216845703125,-0.1805105358362198,1.9022328853607178,-0.9480621218681335
1771038412765137000,10.791136962890626,-0.1597411334514618,1.7556253671646118,-0.8772017955780029
1771038412784105000,10.81010498046875,0.31551164388656616,1.0946696996688843,-1.2400555610656738
1771038412803073000,10.829072998046875,0.99968022108078,0.5681042671203613,-1.6310089826583862
1771038412822041300,10.848041259765624,0.9471458196640015,-0.08307760953903198,-1.9144501686096191
1771038412841009400,10.867009521484375,0.0565049909055233,-0.3530798554420471,-2.05617094039917
1771038412859977500,10.8859775390625,-0.9453132748603821,-0.3298669755458832,-1.7299690246582031
1771038412878945800,10.90494580078125,-1.6197079420089722,-0.21258094906806946,-1.1630865335464478
1771038412897913900,10.923913818359376,-2.050978422164917,0.21135921776294708,-0.8576541543006897
1771038412916882000,10.9428818359375,-2.5445573329925537,0.7122683525085449,-0.8442151546478271
1771038412935850200,10.961850341796875,-3.1749696731567383,1.1740821599960327,-0.8063415288925171
1771038412954818300,10.980818359375,-3.7394087314605713,1.646891474723816,-0.43371400237083435
1771038412973786400,10.999786376953125,-3.870133876800537,1.9914191961288452,0.3433060050010681
1771038412992754700,11.018754638671876,-3.540266752243042,2.257756233215332,1.284037709236145
1771038413011722800,11.03772265625,-3.060127019882202,2.5363106727600098,1.916893720626831
1771038413030690800,11.05669091796875,-2.5726571083068848,2.4410157203674316,2.075718402862549
1771038413049659000,11.075658935546874,-1.9850051403045654,1.886350393295288,1.6395610570907593
1771038413068627200,11.094627197265625,-1.2873975038528442,0.8943060636520386,0.685390293598175
1771038413087595300,11.11359521484375,-0.6484329700469971,-0.36651885509490967,-0.4630354940891266
1771038413106563300,11.132563232421875,-0.14630211889743805,-1.6004657745361328,-1.470962405204773
1771038413125531600,11.15153173828125,0.0308486707508564,-2.6132795810699463,-2.0525057315826416
1771038413144499700,11.170499755859375,-0.22815799713134766,-3.299891471862793,-2.1551308631896973
1771038413163467800,11.1894677734375,-0.9550870656967163,-3.4831509590148926,-1.7201951742172241
1771038413182435800,11.208435791015624,-2.13527774810791,-2.522871494293213,-0.7293725609779358
1771038413201404200,11.227404052734375,-3.503614902496338,-0.5754346251487732,0.7831286191940308
1771038413220372200,11.246372314453126,-4.842630386352539,1.2021819353103638,2.66581392288208
1771038413239340300,11.26534033203125,-5.548790454864502,2.4153592586517334,4.246731758117676
1771038413258308400,11.284308349609375,-5.503586292266846,2.9602506160736084,4.853931427001953
1771038413277276700,11.303276611328124,-4.625162601470947,2.956585645675659,4.531394958496094
1771038413296244700,11.32224462890625,-3.2959208488464355,2.4691154956817627,3.5833327770233154
1771038413315212800,11.341212890625,-1.895818829536438,1.5858049392700195,2.553414821624756
1771038413334180900,11.360180908203125,-0.6948586702346802,0.6133082509040833,2.042731761932373
1771038413353149000,11.37914892578125,0.13958260416984558,-0.028099779039621353,2.001193046569824
1771038413372117200,11.3981171875,0.3753764033317566,-0.26878049969673157,2.2785255908966064
1771038413391085300,11.417085205078125,0.2813032269477844,-0.4166097939014435,2.685361623764038
1771038413410053400,11.436053466796874,0.49144071340560913,-0.06841685622930527,2.956585645675659
1771038413429021400,11.455021484375,0.9886846542358398,0.5387827157974243,3.2058184146881104
1771038413447989500,11.473989501953126,0.8506292104721069,0.8833104968070984,3.406182050704956
1771038413466957600,11.49295751953125,0.210442915558815,0.9236275553703308,3.5772242546081543
1771038413485926000,11.51192578125,-0.24281874299049377,1.0873392820358276,3.6199846267700195
1771038413504894000,11.53089404296875,-0.48960810899734497,1.2986985445022583,3.4941465854644775
1771038413523862000,11.549862060546875,-0.5958985686302185,1.4734058380126953,3.1508405208587646
1771038413542830000,11.568830078125,-0.630107045173645,1.1227694749832153,2.5277583599090576
1771038413561798100,11.587798095703125,-0.4468475878238678,0.5021308660507202,1.7165300846099854
1771038413580766200,11.60676611328125,0.13591741025447845,-0.12095122784376144,0.9871574640274048
1771038413599734300,11.625734375,1.0424407720565796,-0.554665207862854,0.5302306413650513
1771038413618702300,11.644702392578125,1.8866559267044067,-0.8625410795211792,0.16859868168830872
1771038413637670700,11.663670654296874,2.377791166305542,-1.1801908016204834,-0.26022839546203613
1771038413656638700,11.682638671875,2.4572036266326904,-1.5296053886413574,-0.7513636946678162
1771038413675606800,11.701606689453126,2.2959353923797607,-2.0048582553863525,-1.2596031427383423
1771038413694574800,11.720574951171875,2.1297800540924072,-2.397033452987671,-1.85092031955719
1771038413713543000,11.73954296875,1.889099359512329,-2.2736387252807617,-2.3909246921539307
1771038413732511000,11.758510986328124,1.6142101287841797,-1.545487880706787,-2.607170820236206
1771038413751479000,11.77747900390625,1.1316269636154175,-0.6719512343406677,-2.416581153869629
1771038413770447000,11.796447021484376,0.7186824083328247,-0.18692462146282196,-1.8362594842910767
1771038413789415200,11.815415283203125,0.4156934916973114,0.03787361457943916,-1.1630865335464478
1771038413808383200,11.83438330078125,0.05039634555578232,0.27977606654167175,-0.7904590368270874
1771038413827351300,11.853351318359374,-0.22327107191085815,0.9541707634925842,-0.8967494964599609
1771038413846319400,11.8723193359375,-0.3503309488296509,1.5968005657196045,-1.2253947257995605
1771038413865287400,11.891287353515626,-0.3442223072052002,1.4294235706329346,-1.5418226718902588
1771038413884255500,11.91025537109375,0.11881320178508759,0.4043924808502197,-1.9217805862426758
1771038413903223800,11.929223876953126,1.0375537872314453,-0.287106454372406,-2.408029079437256
1771038413922192000,11.94819189453125,1.416290044784546,-0.3090975880622864,-2.930929183959961
1771038413941159700,11.96715966796875,1.0192278623580933,-0.34086254239082336,-3.3915212154388428
1771038413960127700,11.986127685546874,0.6905826330184937,-0.7183769941329956,-3.45871639251709
1771038413979095800,12.005095703125,0.693026065826416,-0.9199623465538025,-3.05432391166687
1771038413998064000,12.024064208984376,0.4462367296218872,-0.6206386089324951,-2.4605634212493896
1771038414017032200,12.0430322265625,-0.18661919236183167,-0.030543239787220955,-2.0024147033691406
1771038414036000000,12.062,-1.0235038995742798,0.5131264328956604,-1.8619158267974854
1771038414054968000,12.080968017578124,-1.7993022203445435,0.8930842876434326,-1.9547673463821411
1771038414073936100,12.09993603515625,-2.2036945819854736,1.0677915811538696,-2.0610578060150146
1771038414092904200,12.118904296875,-2.3063199520111084,0.9382883310317993,-2.0292928218841553
1771038414111872300,12.137872314453125,-2.2085816860198975,0.5290089249610901,-1.9095633029937744
1771038414130840300,12.15684033203125,-1.9947789907455444,0.23823726177215576,-1.7079778909683228
1771038414149808400,12.175808349609374,-1.7443243265151978,0.1649334877729416,-1.470962405204773
1771038414168776400,12.1947763671875,-1.5561779737472534,0.17226386070251465,-1.3304635286331177
1771038414187744500,12.21374462890625,-1.4010183811187744,0.15149445831775665,-1.3280199766159058
1771038414206712600,12.232712646484375,-1.155450701713562,-0.1026252806186676,-1.352454662322998
1771038414225680600,12.2516806640625,-0.9135482907295227,-0.5839866995811462,-1.3829978704452515
1771038414244648700,12.270648681640624,-0.7596103549003601,-1.2095122337341309,-1.3634501695632935
1771038414263616800,12.28961669921875,-0.40408703684806824,-1.7458515167236328,-1.2608249187469482
1771038414282584800,12.308584716796876,0.05039634555578232,-2.2027783393859863,-1.08978271484375
1771038414301552600,12.327552734375,0.006414080038666725,-2.3787074089050293,-0.7733548283576965
1771038414320520700,12.346520751953125,-0.7021890878677368,-2.1331398487091064,-0.15760311484336853
1771038414339488800,12.36548876953125,-1.6050472259521484,-1.4379756450653076,0.9492838382720947
1771038414358456800,12.384456787109375,-2.402836561203003,-0.9077450633049011,2.5326454639434814
1771038414377425000,12.4034248046875,-2.8121159076690674,-1.0445787906646729,3.9718427658081055
1771038414396393000,12.42239306640625,-2.645960807800293,-1.7617340087890625,4.783071041107178
1771038414415361000,12.441361083984376,-2.033874273300171,-2.0830488204956055,5.081173419952393
1771038414434328800,12.460328857421874,-1.507308840751648,-1.8057162761688232,4.940674304962158
1771038414462781000,12.488781005859375,-1.156672477722168,-1.25715970993042,4.3493571281433105
1771038414481749000,12.5077490234375,-0.42852163314819336,-1.3267983198165894,4.004829406738281
1771038414500717000,12.526717041015624,0.6380482912063599,-1.7397428750991821,3.4355034828186035
1771038414519685000,12.54568505859375,1.6300926208496094,-2.0305144786834717,2.620609998703003
1771038414538653200,12.564653076171876,2.030819892883301,-1.5247185230255127,1.8374812602996826
1771038414557621000,12.58362109375,1.7473787069320679,-0.6035344004631042,1.3817760944366455
1771038414576589000,12.602589111328125,1.1963787078857422,-0.1637117564678192,1.4233149290084839
1771038414595557000,12.62155712890625,0.9862411618232727,-0.36651885509490967,1.8570289611816406
1771038414614525200,12.640525146484375,0.8494074940681458,-1.0189224481582642,2.171013355255127
1771038414633493000,12.659492919921876,0.6404917240142822,-1.433088779449463,2.0476186275482178
1771038414652461000,12.6784609375,0.8066469430923462,-0.9676098227500916,1.6346741914749146
1771038414671429000,12.69742919921875,1.1414008140563965,-0.4105011224746704,1.1985167264938354
1771038414690397200,12.716397216796874,1.3735294342041016,-0.9480621218681335,0.8210022449493408
1771038414709365000,12.735364990234375,1.6044363975524902,-1.7287473678588867,0.4764745235443115
1771038414728333000,12.7543330078125,1.5433498620986938,-1.9425499439239502,0.16249002516269684
1771038414747301000,12.773301025390625,1.305112600326538,-1.7165300846099854,0.05497783049941063
1771038414766269200,12.792269287109375,1.2745693922042847,-1.5528182983398438,0.13072505593299866
1771038414785237000,12.811237060546874,1.3271037340164185,-1.3658936023712158,0.2981020212173462
1771038414804205000,12.830205078125,1.1804962158203125,-1.0653481483459473,0.5180133581161499
1771038414823173000,12.849173095703126,0.7272345423698425,-1.0690133571624756,0.768467903137207
1771038414842141200,12.86814111328125,0.16523891687393188,-1.276707410812378,1.0848958492279053
1771038414861109000,12.88710888671875,0.019853105768561363,-1.3793326616287231,1.2999202013015747
1771038414880077000,12.9060771484375,0.7284562587738037,-0.9920443892478943,1.3756674528121948
1771038414899044900,12.925044921875,1.6777400970458984,-0.6560688018798828,1.3170244693756104
1771038414918013000,12.944012939453126,2.0112721920013428,-0.6145299673080444,1.0787872076034546
1771038414936981000,12.96298095703125,1.7339396476745605,-0.18814635276794434,0.9260709881782532
1771038414955949000,12.981948974609375,1.082757830619812,-0.01588248461484909,1.0445787906646729
1771038414974916900,13.000916748046874,0.3228420317173004,-0.19792018830776215,1.2266165018081665
1771038414993885000,13.019885009765625,-0.14141519367694855,0.21135921776294708,1.2119556665420532
1771038415012852700,13.038852783203126,-0.2611446976661682,0.44348782300949097,0.8295543789863586
1771038415031820800,13.05782080078125,-0.2513708472251892,0.29443681240081787,0.13194678723812103
1771038415050788900,13.076788818359375,-0.10354158282279968,0.24923282861709595,-0.3689623177051544
1771038415069756700,13.095756591796874,0.05283980444073677,0.3396408259868622,-0.49480047821998596
1771038415088724700,13.114724853515625,-0.09132428467273712,0.41416633129119873,-0.5070177912712097
1771038415107692800,13.13369287109375,-0.3039052188396454,0.6731730103492737,-0.4581485986709595
1771038415126660600,13.15266064453125,-0.23793183267116547,0.8662062287330627,-0.41905322670936584
1771038415145628700,13.171628662109375,0.06383536756038666,0.851545512676239,-0.5143481492996216
1771038415164596500,13.190596435546874,0.5732966065406799,0.4105011224746704,-0.6450732350349426
1771038415183564500,13.209564453125,1.0228930711746216,0.034208428114652634,-0.6426297426223755
1771038415202532400,13.228532470703126,1.0473276376724243,0.10995566099882126,-0.3970620930194855
1771038415221500400,13.24750048828125,0.5598575472831726,0.526565432548523,-0.05497783049941063
1771038415240468500,13.266468505859375,-0.13530655205249786,0.9712749719619751,0.34208428859710693
1771038415259436300,13.285436279296874,-0.28069236874580383,1.0140355825424194,0.6585122346878052
1771038415278404400,13.304404296875,-0.12186752259731293,0.9456186890602112,0.8161153197288513
1771038415297372200,13.3233720703125,0.18600831925868988,0.8051197528839111,0.7538071274757385
1771038415316340200,13.34234033203125,0.581848680973053,0.5766563415527344,0.3811796307563782
1771038415335308300,13.361308349609375,0.6979129910469055,0.5534434914588928,-0.16737695038318634
1771038415354276000,13.380276123046874,0.25320345163345337,0.6157516837120056,-0.4740310609340668
1771038415373244200,13.399244140625,-0.4615083336830139,0.9517273306846619,-0.2932150959968567
1771038415392212000,13.4182119140625,-0.850018322467804,1.2534945011138916,0.3127627670764923
1771038415411179800,13.4371796875,-0.7974839806556702,1.1728603839874268,0.7757982611656189
1771038415430147800,13.45614794921875,-0.5958985686302185,0.9480621218681335,0.5693259835243225
1771038415449115600,13.47511572265625,-0.4712821841239929,0.6230821013450623,-0.03298669680953026
1771038415468083700,13.494083740234375,-0.47983428835868835,0.44348782300949097,-0.48502662777900696
1771038415487051800,13.5130517578125,-0.7535017132759094,0.23457208275794983,-0.4825831651687622
1771038415506019600,13.53201953125,-1.0760383605957031,0.3225366175174713,-0.25900667905807495
1771038415524987600,13.550987548828125,-1.2641847133636475,0.3384190797805786,-0.10873392969369888
1771038415543955500,13.56995556640625,-1.379027247428894,0.318871408700943,-0.277332603931427
1771038415562923300,13.58892333984375,-1.4828742742538452,0.2003636509180069,-0.5338957905769348
1771038415581891300,13.607891357421876,-1.3533709049224854,-0.1380554437637329,-0.6560688018798828
1771038415600859100,13.626859130859375,-0.9049961566925049,-0.6108647584915161,-0.7635809779167175
1771038415619827200,13.6458271484375,-0.21227550506591797,-1.1435388326644897,-0.8381064534187317
1771038415638795000,13.664794921875,0.23243404924869537,-1.5906919240951538,-0.9053016304969788
1771038415657763000,13.68376318359375,0.1542433500289917,-2.1502439975738525,-1.0238093137741089
1771038415676731000,13.70273095703125,-0.18784092366695404,-2.3322818279266357,-1.1777472496032715
1771038415695699000,13.721698974609374,-0.5531380772590637,-2.092822790145874,-1.1728603839874268
1771038415714666800,13.740666748046875,-0.878118097782135,-1.7556253671646118,-0.637742817401886
1771038415733634600,13.759634521484376,-1.017395257949829,-1.6322306394577026,0.44959646463394165
1771038415752602600,13.7786025390625,-1.0845904350280762,-1.556483507156372,1.0739002227783203
1771038415771570400,13.7975703125,-1.204319953918457,-1.3671153783798218,1.092226266860962
1771038415790538500,13.81653857421875,-1.4596613645553589,-1.1129956245422363,0.934623122215271
1771038415809506300,13.83550634765625,-1.6612467765808105,-0.8649845123291016,1.053130865097046
1771038415828474400,13.854474365234376,-1.9129230976104736,-0.7648026943206787,1.4672971963882446
1771038415847442200,13.873442138671875,-2.154825448989868,-0.6817250847816467,1.7250821590423584
1771038415866410000,13.892409912109375,-2.3930628299713135,-0.4202749729156494,1.6493349075317383
1771038415885378000,13.9113779296875,-2.5799872875213623,-0.04153880476951599,1.4941751956939697
1771038415904345900,13.930345947265625,-2.5922048091888428,0.11728604137897491,1.5234967470169067
1771038415923313700,13.949313720703126,-2.3686282634735107,-0.01954767294228077,1.7153083086013794
1771038415942281700,13.96828173828125,-1.9092578887939453,-0.023212861269712448,1.9107850790023804
1771038415961249500,13.98724951171875,-1.5121957063674927,0.026878049597144127,2.0073015689849854
1771038415980217300,14.00621728515625,-1.1591159105300903,-0.06352993845939636,2.062279462814331
1771038415999185400,14.025185302734375,-0.6899717450141907,-0.14049890637397766,2.1050400733947754
1771038416018153200,14.0441533203125,-0.448069304227829,-0.010995565913617611,2.062279462814331
1771038416037121000,14.06312109375,-0.36132651567459106,0.2565632164478302,1.9132285118103027
1771038416056089000,14.082089111328125,-0.1695149689912796,0.4056142270565033,1.7531819343566895
1771038416075057000,14.101056884765624,0.33017241954803467,0.34086254239082336,1.7385212182998657
1771038416094024700,14.120024658203125,0.9349285364151001,0.2309068888425827,1.7898337841033936
1771038416112992800,14.13899267578125,1.305112600326538,0.20891575515270233,1.6957606077194214
1771038416131960600,14.157960693359374,1.3600903749465942,0.10018182545900345,1.276707410812378
1771038416150928400,14.176928466796875,1.3454296588897705,-0.004886918235570192,0.6817250847816467
1771038416169896200,14.195896240234376,1.3429862260818481,-0.02932151034474373,0.3787361681461334
1771038416188864300,14.2148642578125,1.423620343208313,0.008552107028663158,0.5290089249610901
1771038416207832000,14.23383203125,1.5934407711029053,0.014660755172371864,0.8258891701698303
1771038416226799900,14.2527998046875,1.7351614236831665,-0.1490510106086731,0.8772017955780029
1771038416245767700,14.271767578125,1.9257512092590332,-0.5497782826423645,0.8735366463661194
1771038416264735700,14.29073583984375,2.0137157440185547,-0.7696896195411682,0.9089667797088623
1771038416283703600,14.30970361328125,1.7779219150543213,-0.574212908744812,0.8869756460189819
1771038416302671400,14.32867138671875,1.2831214666366577,-0.08429934084415436,0.8344413042068481
1771038416321639200,14.34763916015625,1.0106757879257202,0.6243038177490234,0.7281508445739746
1771038416340607200,14.366607177734375,0.9960150122642517,0.8124501705169678,0.4324922561645508
1771038416359575000,14.385574951171876,0.9837977290153503,0.7122683525085449,0.20158538222312927
1771038416378542800,14.40454296875,0.9104939699172974,0.8075632452964783,0.1747073233127594
1771038416397510700,14.4235107421875,0.712573766708374,1.314581036567688,0.30543237924575806
1771038416416478500,14.442478515625,0.4303542375564575,1.9816453456878662,0.3445277214050293
1771038416435446500,14.461446533203125,0.10537417232990265,2.2736387252807617,0.44959646463394165
1771038416454414300,14.480414306640625,-0.08643736690282822,1.8814635276794434,0.6646208763122559
1771038416473382100,14.499382080078124,0.15302163362503052,1.2217295169830322,0.7562506198883057
1771038416492350000,14.518349853515625,0.528092622756958,0.9126319885253906,0.6536253094673157
1771038416511317800,14.53731787109375,0.7736602425575256,0.46547895669937134,0.6536253094673157
1771038416530285600,14.55628564453125,0.942258894443512,-0.14660754799842834,0.45937031507492065
1771038416549253600,14.575253662109375,1.1328487396240234,-0.4214966893196106,-0.034208428114652634
1771038416568221400,14.594221435546874,1.267238974571228,-0.31154105067253113,-0.36774060130119324
1771038416587189200,14.613189208984375,1.3014473915100098,0.21258094906806946,-0.2614501118659973
1771038416606157000,14.632156982421876,1.1267400979995728,0.8906408548355103,-0.2516762912273407
1771038416625124900,14.651124755859374,0.712573766708374,1.1398736238479614,-0.4581485986709595
1771038416644092700,14.6700927734375,0.383928507566452,0.8979712128639221,-0.5522217750549316
1771038416663060500,14.689060546875,0.5012145638465881,0.8674280047416687,-0.554665207862854
1771038416682028300,14.7080283203125,0.6148353815078735,1.0030399560928345,-0.7464767694473267
1771038416700996400,14.726996337890625,0.4975493550300598,1.1508692502975464,-1.091004490852356
1771038416719964200,14.745964111328124,0.30573782324790955,1.3744457960128784,-1.247385859489441
1771038416738932000,14.764931884765625,0.1493564397096634,1.9694280624389648,-0.9871574640274048
1771038416757899800,14.783899658203126,0.1383608728647232,2.4202463626861572,-0.45326167345046997
1771038416776867600,14.80286767578125,0.18234314024448395,2.550971269607544,-0.27855435013771057
1771038416795835400,14.82183544921875,0.32650721073150635,2.49843692779541,-0.43371400237083435
1771038416814803200,14.84080322265625,0.3289506733417511,2.266308307647705,-0.5852084755897522
1771038416833771000,14.85977099609375,0.19944734871387482,1.8387030363082886,-0.5607738494873047
1771038416852738800,14.87873876953125,0.04673115536570549,1.2974767684936523,-0.4007273018360138
1771038416871706600,14.89770654296875,-0.19150610268115997,1.1239912509918213,-0.26878049969673157
1771038416890674400,14.91667431640625,-0.7412844300270081,1.4147628545761108,-0.0818558782339096
1771038416909642200,14.935642333984376,-1.2360849380493164,1.29503333568573,-0.01588248461484909
1771038416928610000,14.954610107421875,-1.3448188304901123,0.9236275553703308,-0.014660755172371864
1771038416947577900,14.973577880859375,-1.2825106382369995,0.647516667842865,0.2211330533027649
1771038416966545700,14.992545654296874,-1.4388920068740845,0.40805765986442566,0.8625410795211792
1771038416985513500,15.011513427734375,-1.9776747226715088,0.21135921776294708,1.8228205442428589
1771038417004481300,15.030481201171876,-2.7815728187561035,0.11728604137897491,2.7782130241394043
1771038417023449000,15.049448974609374,-3.4632978439331055,0.08796452730894089,3.4208426475524902
1771038417042417000,15.0684169921875,-3.3606724739074707,0.01588248461484909,3.5894415378570557
1771038417061384700,15.087384765625,-2.4908010959625244,0.06230820715427399,3.2424702644348145
1771038417080352500,15.1063525390625,-1.8286237716674805,-0.10140355676412582,2.5045456886291504
1771038417099320300,15.1253203125,-1.4425572156906128,-0.5729911923408508,1.635895848274231
1771038417118288100,15.1442880859375,-0.6191114783287048,-0.7232639193534851,0.7257073521614075
1771038417137256000,15.163255859375,-0.0412333719432354,-0.5057960152626038,0.10506874322891235
1771038417156223700,15.1822236328125,-0.04734202101826668,-0.5876519083976746,0.0977383628487587
1771038417175191600,15.201191650390625,0.04550942778587341,-0.6291907429695129,0.3750709891319275
1771038417194159400,15.220159423828125,0.11636973917484283,-0.7293725609779358,0.23335035145282745
1771038417213127200,15.239127197265624,0.032070402055978775,-0.8246674537658691,-0.10751219838857651
1771038417232094700,15.2580947265625,-0.0668896958231926,-0.7648026943206787,-0.26511532068252563
1771038417251062500,15.2770625,-0.06444623321294785,-0.6010909676551819,-0.18692462146282196
1771038417270030300,15.2960302734375,0.11392628401517868,-0.4569268524646759,-0.013439024798572063
1771038417288998100,15.314998046875,0.38881543278694153,-0.5974257588386536,0.19914191961288452
1771038417307966000,15.333966064453126,0.639270007610321,-0.7623592615127563,0.3029889166355133
1771038417326933800,15.352933837890625,0.7699950337409973,-0.7892373204231262,0.2919933497905731
1771038417345901600,15.371901611328125,0.7614429593086243,-0.675616443157196,0.2003636509180069
1771038417364869400,15.390869384765624,0.7699950337409973,-0.4886918365955353,0.1331685185432434
1771038417383837000,15.4098369140625,0.878728985786438,-0.21258094906806946,0.10018182545900345
1771038417402804700,15.4288046875,0.9214895367622375,-0.27855435013771057,0.3335321843624115
1771038417421772500,15.4477724609375,0.8762855529785156,-0.5473348498344421,0.5937605500221252
1771038417440740400,15.466740234375,0.6417134404182434,-0.5778780579566956,0.6792816519737244
1771038417459708200,15.485708251953126,0.12980876863002777,-0.3066541254520416,0.7281508445739746
1771038417478676000,15.504676025390625,-0.5384773015975952,0.09896009415388107,0.8784235715866089
1771038417497643500,15.5236435546875,-0.9966259002685547,0.3909534513950348,0.9334014058113098
1771038417516611300,15.542611328125,-0.9514219164848328,0.38240134716033936,0.9969313144683838
1771038417535579100,15.5615791015625,-0.5653553605079651,0.29077163338661194,0.8710931539535522
1771038417554547000,15.580546875,-0.16340632736682892,0.13439024984836578,0.554665207862854
1771038417573514800,15.5995146484375,0.06750056147575378,0.15271618962287903,0.2663370370864868
1771038417592482300,15.618482421875,0.21655155718326569,0.328645259141922,0.04276053607463837
1771038417611450000,15.6374501953125,0.27030766010284424,0.47525280714035034,-0.27000224590301514
1771038417630418000,15.65641796875,0.37659814953804016,0.471587598323822,-0.5815432667732239
1771038417649385700,15.6753857421875,0.44501498341560364,0.14049890637397766,-0.5131264328956604
1771038417668353300,15.694353271484376,0.31062474846839905,0.0256563201546669,-0.17226386070251465
1771038417687321000,15.713321044921875,-0.21960589289665222,0.36163195967674255,0.06719512492418289
1771038417706289000,15.732288818359375,-1.0625993013381958,0.7611374855041504,0.2309068888425827
1771038417725256700,15.751256591796874,-1.7467678785324097,1.099556565284729,0.36285367608070374
1771038417744224300,15.770224365234375,-1.721111536026001,0.7892373204231262,0.7476984858512878
1771038417763192000,15.789192138671876,-1.0980294942855835,0.5302306413650513,1.266933560371399
1771038417782160000,15.808159912109375,-0.3503309488296509,0.3591884970664978,1.3255765438079834
1771038417801127400,15.82712744140625,0.29596397280693054,0.2003636509180069,0.8686497211456299
1771038417820095200,15.84609521484375,0.7638863921165466,-0.009773836471140385,0.3445277214050293
1771038417839063000,15.86506298828125,1.1267400979995728,-0.11117739230394363,0.08552107214927673
1771038417858030600,15.884030517578125,1.296560525894165,-0.2370155304670334,0.1539379209280014
1771038417876998400,15.902998291015624,1.2537999153137207,-0.3750709891319275,0.45937031507492065
1771038417895966200,15.92196630859375,1.072983980178833,-0.45326167345046997,0.831997811794281
1771038417914934000,15.94093408203125,0.815199077129364,-0.44837474822998047,1.091004490852356
1771038417933901600,15.959901611328124,0.5476402640342712,-0.44348782300949097,1.2400555610656738
1771038417952869400,15.978869384765625,0.2935205399990082,-0.3848448097705841,1.3585633039474487
1771038417971837200,15.997837158203126,0.09071341902017593,-0.2822195291519165,1.5100576877593994
1771038417990804700,16.0168046875,-0.11087195575237274,-0.21991132199764252,1.7006475925445557
1771038418009772500,16.0357724609375,-0.22204934060573578,-0.16004657745361328,1.8277074098587036
1771038418028740000,16.054739990234374,-0.1853974610567093,0.10873392969369888,1.7629557847976685
1771038418047708000,16.0737080078125,-0.23426663875579834,0.41294458508491516,1.5552617311477661
1771038418066675700,16.09267578125,-0.3295615613460541,0.5619956254959106,1.293811559677124
1771038418085643300,16.111643310546874,-0.2929096519947052,0.2919933497905731,0.9517273306846619
1771038418104611000,16.130611083984373,-0.12431098520755768,0.03298669680953026,0.5229002237319946
1771038418123578600,16.14957861328125,0.09437860548496246,0.14294235408306122,0.03176496922969818
1771038418142546400,16.16854638671875,0.2263254076242447,0.7232639193534851,-0.3787361681461334
1771038418161514200,16.18751416015625,0.25931209325790405,0.7318159937858582,-0.4923570156097412
1771038418180481800,16.206481689453124,0.3607156574726105,0.10140355676412582,-0.3689623177051544
1771038418199449600,16.22544970703125,0.6600393652915955,-0.3042106628417969,-0.3384190797805786
1771038418218417200,16.244417236328125,0.8078686594963074,-0.13561198115348816,-0.3249800503253937
1771038418237385000,16.263385009765624,0.6893609166145325,0.4056142270565033,-0.10751219838857651
1771038418256352800,16.282352783203127,0.4169152081012726,0.8576541543006897,0.21746785938739777
1771038418275320300,16.3013203125,0.22388194501399994,0.7977893948554993,0.5009090900421143
1771038418294288100,16.3202880859375,0.21655155718326569,0.481361448764801,0.6255255341529846
1771038418313255700,16.339255615234375,0.2910770773887634,0.3335321843624115,0.48991355299949646
1771038418332223500,16.358223388671874,0.23976442217826843,0.3298669755458832,0.18692462146282196
1771038418351191000,16.37719091796875,0.09926552325487137,0.2822195291519165,0.002443459117785096
1771038418370158800,16.396158935546875,0.016187917441129684,0.1282816082239151,0.03787361457943916
1771038418389126400,16.41512646484375,-0.007024944759905338,0.0513126403093338,0.2419024556875229
1771038418408094200,16.43409423828125,-0.03023780696094036,-0.06230820715427399,0.49968740344047546
1771038418427061800,16.453061767578124,-0.004581485874950886,-0.2370155304670334,0.7611374855041504
1771038418446029600,16.472029541015626,0.011300998739898205,-0.3799578845500946,0.9712749719619751
1771038418464997000,16.4909970703125,-0.06200277432799339,-0.411722868680954,1.1410953998565674
1771038418483965000,16.50996484375,-0.2464839369058609,-0.28954991698265076,1.452636480331421
1771038418502932500,16.528932373046874,-0.4761691093444824,-0.2052505612373352,2.0109667778015137
1771038418521900000,16.547900146484373,-0.6863065958023071,-0.2712239623069763,2.726900339126587
1771038418540867800,16.566867919921876,-0.9453132748603821,-0.3530798554420471,3.249800682067871
1771038418559835400,16.58583544921875,-1.1896591186523438,-0.27000224590301514,3.336543321609497
1771038418578803200,16.60480322265625,-1.3949097394943237,-0.1637117564678192,3.3267695903778076
1771038418597770800,16.623770751953124,-1.6368122100830078,-0.23823726177215576,3.736048936843872
1771038418616738600,16.642738525390627,-1.9190317392349243,-0.42882707715034485,4.122115612030029
1771038418635706000,16.6617060546875,-2.2562291622161865,-0.3017672002315521,3.964512348175049
1771038418654673700,16.680673583984376,-2.593426465988159,-0.002443459117785096,3.2950046062469482
1771038418673641500,16.699641357421875,-2.7730207443237305,0.25534147024154663,2.1954479217529297
1771038418692609000,16.718609130859374,-2.6508476734161377,0.3017672002315521,0.9004147052764893
1771038418711576800,16.737576904296876,-2.1059563159942627,0.26511532068252563,-0.3090975880622864
1771038418730544400,16.75654443359375,-1.2483022212982178,0.2663370370864868,-1.4367539882659912
1771038418749512200,16.77551220703125,-0.3539961278438568,0.3078758418560028,-2.433685302734375
1771038418768479700,16.794479736328125,0.40347617864608765,0.4276053309440613,-3.132514476776123
1771038418787447300,16.813447265625,1.1169662475585938,0.5436696410179138,-3.411068916320801
1771038418806415000,16.8324150390625,1.746156930923462,0.5387827157974243,-3.3267695903778076
1771038418825382700,16.851382568359377,2.1310017108917236,0.4838049113750458,-3.2033748626708984
1771038418844350200,16.87035009765625,2.308152675628662,0.4251618981361389,-3.2009315490722656
1771038418863318000,16.889318115234374,2.595258951187134,0.2406807243824005,-3.285230875015259
1771038418882285600,16.90828564453125,2.975216865539551,-0.28466299176216125,-3.1422884464263916
1771038418901253000,16.927253173828124,2.9568910598754883,-0.7929024696350098,-2.657261848449707
1771038418920221000,16.946220947265626,2.347247838973999,-0.6194168925285339,-1.9364413022994995
1771038418939188500,16.9651884765625,1.6337578296661377,0.09896009415388107,-1.479514479637146
1771038418958156000,16.984156005859376,1.0204496383666992,0.823445737361908,-1.4025455713272095
1771038418977123800,17.003123779296875,0.6038398146629333,0.9944878816604614,-1.3158026933670044
1771038418996091400,17.02209130859375,0.35705047845840454,0.5668824911117554,-1.0360267162322998
1771038419015059000,17.041058837890624,0.18723005056381226,0.20158538222312927,-0.695164144039154
1771038419034026500,17.060026611328126,0.09560033679008484,0.22968515753746033,-0.34697118401527405
1771038419052994300,17.078994384765625,-0.06200277432799339,0.5510000586509705,0.026878049597144127
1771038419071961900,17.0979619140625,-0.27947062253952026,0.8283326625823975,0.277332603931427
1771038419090929400,17.116929443359375,-0.2672533392906189,0.7757982611656189,0.5094612240791321
1771038419109897000,17.13589697265625,0.03695731982588768,0.411722868680954,0.6695078015327454
1771038419128864800,17.15486474609375,0.14813470840454102,0.050090912729501724,0.5400044918060303
1771038419147832300,17.173832275390627,0.13958260416984558,0.023212861269712448,0.5143481492996216
1771038419166800000,17.1927998046875,0.22754712402820587,0.46914416551589966,0.665842592716217
1771038419185767400,17.211767333984376,0.26419901847839355,0.7660244107246399,0.15149445831775665
1771038419204735200,17.2307353515625,0.18112140893936157,0.4459312856197357,-0.9334014058113098
1771038419223702800,17.249702880859374,0.20433427393436432,-0.09529490768909454,-1.665217399597168
1771038419242670300,17.26867041015625,0.23976442217826843,-0.33108872175216675,-1.9523237943649292
1771038419261638000,17.287637939453123,-0.02412915788590908,-0.21135921776294708,-2.1111485958099365
1771038419280605400,17.30660546875,-0.36254823207855225,0.12950333952903748,-2.0781619548797607
1771038419299573200,17.3255732421875,-0.6606502532958984,0.3433060050010681,-1.8032728433609009
1771038419318540800,17.344540771484375,-0.8720094561576843,0.2614501118659973,-1.3109158277511597
1771038419337508400,17.36350830078125,-1.0125083923339844,0.07330377399921417,-0.7977893948554993
1771038419356476000,17.382475830078125,-1.0674861669540405,-0.16004657745361328,-0.5094612240791321
1771038419375443500,17.401443359375,-0.8915571570396423,-0.4276053309440613,-0.35185810923576355
1771038419394411300,17.420411376953126,-0.5555815100669861,-0.526565432548523,0.06108647957444191
1771038419413378800,17.43937890625,-0.38820457458496094,-0.4618137776851654,0.7049379348754883
1771038419432346400,17.458346435546876,-0.3857611119747162,-0.4862483739852905,1.2913681268692017
1771038419451314000,17.47731396484375,-0.28557929396629333,-0.6169734001159668,1.4098758697509766
1771038419470281500,17.496281494140625,-0.09865466505289078,-0.8930842876434326,1.1691951751708984
1771038419489249000,17.5152490234375,0.2006690800189972,-1.2021819353103638,0.8368847370147705
1771038419508216800,17.534216796875,0.3790415823459625,-1.2925899028778076,0.685390293598175
1771038419527184400,17.553184326171873,0.10415244847536087,-1.2119556665420532,0.9419534802436829
1771038419546152000,17.57215185546875,-0.4175260663032532,-0.9969313144683838,1.3500111103057861
1771038419565119500,17.591119384765626,-0.7229584455490112,-0.8368847370147705,1.6578869819641113
1771038419584087000,17.610087158203125,-0.6740893125534058,-0.9272927641868591,1.6236785650253296
1771038419603054600,17.6290546875,-0.4712821841239929,-1.156977891921997,1.2779290676116943
1771038419622022100,17.648022216796875,-0.5751292109489441,-1.0763437747955322,0.7049379348754883
1771038419640989700,17.66698974609375,-0.887891948223114,-0.6621774435043335,0.06108647957444191
1771038419659957200,17.685957275390624,-1.0870338678359985,-0.014660755172371864,-0.6181951761245728
1771038419678925000,17.704925048828127,-1.038164734840393,0.7061597108840942,-1.2779290676116943
1771038419697892600,17.723892578125,-0.8378010392189026,1.1166608333587646,-1.673769474029541
1771038419716860200,17.742860107421876,-0.7412844300270081,1.469740629196167,-1.7348560094833374
1771038419735827700,17.76182763671875,-0.6508764028549194,1.8655810356140137,-1.9034546613693237
1771038419754795300,17.780795166015626,-0.6679806113243103,2.1612396240234375,-2.436128854751587
1771038419773762800,17.7997626953125,-0.8219185471534729,2.592510223388672,-2.9846854209899902
1771038419792730400,17.81873046875,-0.9978476166725159,3.1398448944091797,-3.3121087551116943
1771038419811698000,17.837697998046874,-1.0564906597137451,3.236361503601074,-3.412290573120117
1771038419830665500,17.85666552734375,-0.9477567076683044,3.04821515083313,-3.3096654415130615
1771038419849633000,17.875633056640623,-0.8463531732559204,3.050658702850342,-2.967581033706665
1771038419868600600,17.8946005859375,-0.9245438575744629,3.2950046062469482,-2.4178028106689453
1771038419887568100,17.913568115234376,-1.0674861669540405,3.364643096923828,-1.694538950920105
1771038419906535700,17.93253564453125,-1.166446328163147,3.347538948059082,-0.8698714375495911
1771038419925503200,17.951503173828126,-1.204319953918457,3.3487606048583984,-0.3078758418560028
1771038419944470800,17.970470703125,-1.3997966051101685,3.236361503601074,-0.11484257876873016
1771038419963438300,17.989438232421875,-1.634368658065796,3.0750932693481445,0.07330377399921417
1771038419982406000,18.008406005859374,-1.8054108619689941,2.657261848449707,0.5314523577690125
1771038420001373400,18.02737353515625,-1.8017456531524658,2.190561056137085,1.1239912509918213
1771038420020341000,18.046341064453124,-1.7088942527770996,1.9193371534347534,1.4685189723968506
1771038420039308500,18.06530859375,-1.5134174823760986,1.8924590349197388,1.3842196464538574
1771038420058276000,18.084276123046877,-1.4278963804244995,1.9926408529281616,1.1410953998565674
1771038420077243600,18.10324365234375,-1.6673554182052612,1.7934989929199219,1.2400555610656738
1771038420096211200,18.122211181640626,-1.8041890859603882,1.3915499448776245,1.8765766620635986
1771038420115178800,18.1411787109375,-1.8029674291610718,1.0873392820358276,2.5851798057556152
1771038420134146300,18.160146240234376,-2.408945322036743,0.6181951761245728,2.9846854209899902
1771038420153113900,18.17911376953125,-3.073566198348999,0.1795942485332489,3.4025168418884277
1771038420172081400,18.198081298828125,-2.88053297996521,0.6304124593734741,3.987725257873535
1771038420191049000,18.217049072265624,-2.0631957054138184,2.1478004455566406,3.4135124683380127
1771038420210016500,18.2360166015625,-1.9996658563613892,2.8173084259033203,1.461188554763794
1771038420228984000,18.254984130859373,-2.3478586673736572,2.0879359245300293,-0.4214966893196106
1771038420247951600,18.27395166015625,-2.1755948066711426,1.2437206506729126,-1.7201951742172241
1771038420266919200,18.292919189453126,-1.740659236907959,1.071456789970398,-3.3145523071289062
1771038420285886700,18.31188671875,-1.3753620386123657,1.3646719455718994,-4.685332775115967
1771038420304854000,18.33085400390625,-1.2470804452896118,1.682321548461914,-5.00664758682251
1771038420323821600,18.349821533203126,-1.543960690498352,1.821598768234253,-4.57049036026001
1771038420342789000,18.3687890625,-1.9825615882873535,1.7910555601119995,-4.150215148925781
1771038420361756700,18.387756591796876,-2.0412046909332275,1.7727296352386475,-4.359130859375
1771038420380724200,18.40672412109375,-1.6013820171356201,1.7776165008544922,-5.110494613647461
1771038420399691800,18.42569189453125,-0.8390227556228638,1.3365721702575684,-6.026792049407959
1771038420418659300,18.444659423828124,0.23243404924869537,0.5497782826423645,-6.819694519042969
1771038420437627000,18.463626953125,1.2159262895584106,0.06963858753442764,-6.969967365264893
1771038420456594400,18.482594482421874,1.7278310060501099,0.2528980076313019,-6.400640964508057
1771038420475561700,18.501561767578124,1.655748963356018,0.9932661056518555,-5.524661064147949
1771038420494529300,18.520529296875,1.4566071033477783,1.7812817096710205,-4.583929538726807
1771038420513496800,18.539496826171874,1.461493968963623,1.9938626289367676,-3.760483503341675
1771038420532464400,18.55846435546875,1.6936225891113281,1.4367539882659912,-3.3658649921417236
1771038420551432000,18.577431884765623,2.2079708576202393,0.915075421333313,-3.4526076316833496
1771038420570399500,18.5963994140625,2.6917755603790283,0.9370665550231934,-3.4831509590148926
1771038420589367000,18.615366943359376,2.738201379776001,1.1252129077911377,-3.0799801349639893
1771038420608334300,18.634334228515623,2.6783366203308105,1.3952151536941528,-2.268751859664917
1771038420627302000,18.653302001953126,2.6062545776367188,1.5992439985275269,-1.2034035921096802
1771038420646269400,18.67226953125,2.47308611869812,1.839924693107605,-0.3078758418560028
1771038420665237000,18.691237060546875,2.380234718322754,1.9034546613693237,0.15638138353824615
1771038420684204500,18.71020458984375,2.6331326961517334,1.7702860832214355,0.2675587832927704
1771038420703171800,18.729171875,2.881143808364868,1.6810998916625977,0.29443681240081787
1771038420722139400,18.748139404296875,2.755305528640747,1.5858049392700195,0.41905322670936584
1771038420741107000,18.76710693359375,2.2140793800354004,1.4184280633926392,0.4043924808502197
1771038420760074500,18.786074462890625,1.7180571556091309,1.2608249187469482,-0.12705987691879272
1771038420779041800,18.805041748046875,1.7302744388580322,1.043357014656067,-1.0971131324768066
1771038420798009300,18.82400927734375,2.327700138092041,1.3952151536941528,-1.887572169303894
1771038420816977000,18.842976806640625,2.4743077754974365,2.1355831623077393,-2.2259912490844727
1771038420835944400,18.8619443359375,2.1468842029571533,2.4043638706207275,-2.4520111083984375
1771038420854912000,18.880912109375,1.9391902685165405,2.092822790145874,-2.685361623764038
1771038420873879300,18.89987939453125,1.9318598508834839,1.7678426504135132,-2.835634231567383
1771038420892846800,18.918846923828124,1.8719950914382935,2.0598361492156982,-2.6364924907684326
1771038420911814400,18.937814453125,1.5506802797317505,2.6584835052490234,-2.0891575813293457
1771038420930782000,18.956781982421877,1.1658353805541992,3.0750932693481445,-1.442862629890442
1771038420949749200,18.975749267578124,0.8860593438148499,3.0885322093963623,-1.0971131324768066
1771038420968716800,18.994716796875,0.8090903759002686,2.740339517593384,-1.2351685762405396
1771038420987684400,19.013684326171877,0.7785471677780151,2.35305118560791,-1.646891474723816
1771038421006652000,19.03265185546875,0.7651081085205078,2.0916008949279785,-2.0158538818359375
1771038421025619200,19.051619140625,0.8775072693824768,2.079383611679077,-2.0329580307006836
1771038421044586800,19.070586669921877,1.007010579109192,2.1355831623077393,-1.7996076345443726
1771038421063554300,19.08955419921875,1.0852012634277344,2.25531268119812,-1.6395610570907593
1771038421082521600,19.108521484375,0.9666935205459595,2.403141975402832,-1.545487880706787
1771038421101489200,19.1274892578125,0.8921679854393005,2.5473060607910156,-1.3671153783798218
1771038421120456700,19.146456787109376,0.9495893120765686,2.5350887775421143,-1.0971131324768066
1771038421139424300,19.16542431640625,0.9605848789215088,2.607170820236206,-0.8478803038597107
1771038421158391600,19.1843916015625,0.6453786492347717,2.8820600509643555,-0.6316341757774353
1771038421177359000,19.203359130859376,0.12003492563962936,2.867399215698242,-0.4972439408302307
1771038421196326700,19.22232666015625,-0.05222893878817558,2.2626430988311768,-0.5949822664260864
1771038421215294000,19.2412939453125,0.18723005056381226,2.0696098804473877,-0.7049379348754883
1771038421234261500,19.260261474609376,0.2886336147785187,2.612057685852051,-0.6255255341529846
1771038421253229000,19.27922900390625,-0.03634645417332649,3.5723371505737305,-0.5436696410179138
1771038421272196400,19.2981962890625,-0.26480987668037415,4.293157577514648,-0.5668824911117554
1771038421291164000,19.317163818359376,-0.21349723637104034,4.4409871101379395,-0.7709113359451294
1771038421310131500,19.33613134765625,-0.23426663875579834,4.130667686462402,-1.1911863088607788
1771038421329098800,19.3550986328125,-0.31490078568458557,3.8655524253845215,-2.001193046569824
1771038421348066300,19.37406640625,-0.33078327775001526,3.7336056232452393,-3.0127851963043213
1771038421367033900,19.393033935546875,-0.14141519367694855,3.5747807025909424,-3.777587890625
1771038421386001200,19.412001220703125,0.0821613147854805,3.1862707138061523,-4.200306415557861
1771038421404968700,19.43096875,0.1078176349401474,2.4996585845947266,-4.632798671722412
1771038421423936300,19.449936279296875,0.20311254262924194,1.8093814849853516,-5.249772071838379
1771038421442903600,19.468903564453125,0.4303542375564575,1.3781108856201172,-5.692038059234619
1771038421461871000,19.48787109375,0.5500837564468384,1.2828160524368286,-5.696925163269043
1771038421480838400,19.50683837890625,0.7272345423698425,1.3793326616287231,-5.243663311004639
1771038421499806000,19.525805908203125,0.5965094566345215,1.4648537635803223,-4.675559043884277
1771038421518773200,19.544773193359376,0.3436114490032196,1.6187916994094849,-4.386009216308594
1771038421537740800,19.56374072265625,0.16279546916484833,1.8264856338500977,-4.3017096519470215
1771038421556708400,19.582708251953125,0.2006690800189972,2.1636829376220703,-4.092793941497803
1771038421575675600,19.601675537109376,0.2910770773887634,2.142913579940796,-3.6896233558654785
1771038421594643200,19.620643310546875,0.24831652641296387,1.99630606174469,-3.306000232696533
1771038421613610500,19.639610595703125,0.168904110789299,1.8228205442428589,-3.026224136352539
1771038421632578000,19.658578125,0.22510367631912231,1.4257583618164062,-2.6560399532318115
1771038421651545600,19.677545654296875,0.38759371638298035,0.9810488224029541,-2.266308307647705
1771038421670513000,19.696512939453125,0.4608974754810333,0.6988292932510376,-2.221104383468628
1771038421689480400,19.71548046875,0.5696313977241516,0.8564324378967285,-2.290742874145508
1771038421708447700,19.73444775390625,0.6466003656387329,1.0482439994812012,-2.355494499206543
1771038421727415300,19.753415283203125,0.712573766708374,0.934623122215271,-2.5387539863586426
1771038421746382800,19.7723828125,1.091309905052185,0.11728604137897491,-2.5668537616729736
1771038421765350100,19.79135009765625,1.6203187704086304,-0.8967494964599609,-2.355494499206543
1771038421784317700,19.810317626953125,1.8341214656829834,-1.2974767684936523,-2.05617094039917
1771038421803285000,19.829284912109376,1.7791436910629272,-0.9040798544883728,-1.8374812602996826
1771038421822252500,19.84825244140625,1.638644814491272,-0.04276053607463837,-1.655443549156189
1771038421841219800,19.8672197265625,1.482263445854187,0.4886918365955353,-1.313359260559082
1771038421860187400,19.8861875,1.499367594718933,0.1539379209280014,-1.0421353578567505
1771038421879154700,19.90515478515625,1.6936225891113281,-0.32620179653167725,-1.0836740732192993
1771038421898122200,19.924122314453125,1.813352108001709,-0.36285367608070374,-1.1814124584197998
1771038421917089500,19.943089599609376,1.6875139474868774,-0.10995566099882126,-1.2253947257995605
1771038421936057000,19.96205712890625,1.5958842039108276,-0.13683371245861053,-1.4086542129516602
1771038421955024600,19.981024658203125,1.959959626197815,-0.7391464114189148,-1.8826853036880493
1771038421973992000,19.999991943359376,2.5378377437591553,-1.2925899028778076,-2.5192062854766846
1771038421992959500,20.01895947265625,2.655123710632324,-0.9944878816604614,-2.885725259780884
1771038422011926800,20.0379267578125,2.145662546157837,-0.007330377586185932,-2.8466298580169678
1771038422030894000,20.05689404296875,1.4211769104003906,0.740368127822876,-2.6865832805633545
1771038422049861600,20.075861572265627,0.9960150122642517,1.0177006721496582,-2.7757694721221924
1771038422068829000,20.094828857421874,0.7394518256187439,1.1826342344284058,-3.1056365966796875
1771038422087796500,20.11379638671875,0.47067132592201233,1.2498292922973633,-3.392742872238159
1771038422106763800,20.132763671875,0.15790854394435883,1.1826342344284058,-3.5283548831939697
1771038422125731300,20.1517314453125,-0.1487455666065216,1.0946696996688843,-3.623649835586548
1771038422144698600,20.17069873046875,-0.3601047992706299,1.1081087589263916,-3.7348272800445557
1771038422163666200,20.189666259765627,-0.47006043791770935,1.1068869829177856,-3.822791814804077
1771038422182633500,20.208633544921874,-0.5311469435691833,1.0958913564682007,-3.9156432151794434
1771038422201601000,20.22760107421875,-0.5897899270057678,1.043357014656067,-4.0585856437683105
1771038422230052000,20.256052001953126,-0.5592467188835144,0.7281508445739746,-4.353022575378418
1771038422249019400,20.275019287109377,-0.36254823207855225,0.2675587832927704,-4.497186660766602
1771038422267987000,20.293987060546876,-0.038789913058280945,-0.33719736337661743,-4.514290809631348
1771038422286954200,20.312954345703126,0.16523891687393188,-0.7660244107246399,-4.439765453338623
1771038422305921800,20.331921875,0.1493564397096634,-0.9321796298027039,-4.230849266052246
1771038422324889000,20.35088916015625,-0.08032871782779694,-0.9407317638397217,-3.8631088733673096
1771038422343856600,20.369856689453126,-0.5140427350997925,-0.851545512676239,-3.3597562313079834
1771038422362824000,20.388823974609377,-1.0161736011505127,-0.7147117853164673,-2.772104263305664
1771038422381791500,20.40779150390625,-1.517082691192627,-0.5974257588386536,-2.175900459289551
1771038422410242600,20.43624267578125,-1.9960006475448608,-0.30543237924575806,-1.1239912509918213
1771038422429209900,20.4552099609375,-2.283107042312622,-0.11362084746360779,-0.09285144507884979
1771038422448177400,20.474177490234375,-2.652069330215454,0.0769689604640007,1.1117738485336304
1771038422467144700,20.493144775390626,-3.0051493644714355,0.5045742988586426,2.1783437728881836
1771038422486112000,20.512112060546876,-2.9721624851226807,1.0543526411056519,2.646266222000122
1771038422505079600,20.53107958984375,-2.3674063682556152,1.4819579124450684,2.4043638706207275
1771038422524046800,20.550046875,-1.1236857175827026,1.2620465755462646,2.0219624042510986
1771038422543014400,20.569014404296876,0.5671879649162292,0.5571087002754211,1.9938626289367676
1771038422561981700,20.587981689453127,1.7705916166305542,-0.7000510096549988,1.9132285118103027
1771038422580949000,20.606948974609374,2.286161422729492,-1.6872085332870483,1.5931353569030762
1771038422599916500,20.62591650390625,2.4987423419952393,-1.9657628536224365,1.528383731842041
1771038422618883800,20.6448837890625,2.330143690109253,-2.0549490451812744,2.0329580307006836
1771038422637851400,20.663851318359374,1.8524473905563354,-2.210108757019043,3.0469934940338135
1771038422656818700,20.682818603515624,1.2415826320648193,-2.129474639892578,4.0304856300354
1771038422675786000,20.701785888671875,0.8860593438148499,-2.008523464202881,4.6877760887146
1771038422694753500,20.72075341796875,0.85918128490448,-1.7592905759811401,5.015199661254883
1771038422713720800,20.739720947265624,1.081536054611206,-0.9712749719619751,5.097055912017822
1771038422732688100,20.758688232421875,1.4969241619110107,0.01954767294228077,4.969995975494385
1771038422751655700,20.77765576171875,1.813352108001709,0.637742817401886,4.730536937713623
1771038422770623000,20.796623046875,2.1053454875946045,0.6548470258712769,4.55460786819458
1771038422789590500,20.815590576171875,2.5415029525756836,0.1490510106086731,4.478860378265381
1771038422808557800,20.834557861328125,2.983768939971924,-0.2919933497905731,4.546055793762207
1771038422827525000,20.853525146484376,3.2647669315338135,-0.4373791813850403,4.713432788848877
1771038422846492400,20.872492431640627,3.437030792236328,-0.5717694163322449,4.790401458740234
1771038422865460000,20.8914599609375,3.448026180267334,-0.5216785073280334,4.761080265045166
1771038422884427300,20.91042724609375,3.276984214782715,-0.5057960152626038,4.519177436828613
1771038422903394800,20.929394775390627,3.1230461597442627,-1.1630865335464478,3.897317409515381
1771038422922362000,20.948362060546874,3.0558509826660156,-2.13191819190979,3.19970965385437
1771038422941329400,20.967329345703124,3.0020949840545654,-2.442237377166748,2.6841397285461426
1771038422960297000,20.986296875,3.057072877883911,-2.313955783843994,2.2919647693634033
1771038422979264300,21.00526416015625,3.248884439468384,-1.7177517414093018,2.0439536571502686
1771038422998231600,21.0242314453125,3.1609199047088623,-0.9553925395011902,1.9804235696792603
1771038423017199000,21.04319921875,2.721097230911255,-0.5839866995811462,1.8374812602996826
1771038423036166400,21.06216650390625,2.366795539855957,-0.4874700903892517,1.4245367050170898
1771038423055133700,21.0811337890625,2.1358888149261475,-0.12583814561367035,0.8894191384315491
1771038423074101200,21.100101318359375,1.9257512092590332,0.2822195291519165,0.574212908744812
1771038423093068500,21.119068603515625,1.6154319047927856,0.7269290685653687,0.3995055556297302
1771038423112035800,21.138035888671876,1.0314451456069946,1.2082905769348145,0.026878049597144127
1771038423131003100,21.157003173828127,0.2922987937927246,1.8350378274917603,-0.5229002237319946
1771038423149970700,21.175970703125,-0.37843072414398193,2.349385976791382,-0.8991929292678833
1771038423168938000,21.19493798828125,-0.6973021626472473,2.7867650985717773,-0.9211840629577637
1771038423187905300,21.2139052734375,-0.5653553605079651,3.112967014312744,-0.657290518283844
1771038423206872800,21.232872802734374,-0.22815799713134766,3.560119867324829,-0.43982264399528503
1771038423225840000,21.251840087890624,0.18112140893936157,3.8264570236206055,-0.5277871489524841
1771038423244807400,21.270807373046875,0.7870992422103882,3.716501235961914,-0.8161153197288513
1771038423263774700,21.289774658203125,1.4883720874786377,3.19970965385437,-1.2253947257995605
1771038423282742300,21.3087421875,2.1554362773895264,2.361603260040283,-1.7495167255401611
1771038423301709600,21.32770947265625,2.642906427383423,1.7629557847976685,-2.2650866508483887
1771038423320676900,21.3466767578125,2.6441280841827393,1.6969823837280273,-2.4630067348480225
1771038423339644400,21.36564453125,2.2617268562316895,1.802051067352295,-2.1478004455566406
1771038423358611700,21.38461181640625,2.076024055480957,2.12580943107605,-1.7079778909683228
1771038423377579000,21.4035791015625,2.006385326385498,2.0586142539978027,-1.6297872066497803
1771038423396546300,21.42254638671875,1.4785982370376587,1.4172062873840332,-1.987753987312317
1771038423415513900,21.441513916015627,0.4975493550300598,0.8258891701698303,-2.561966896057129
1771038423434481200,21.460481201171874,-0.4786125421524048,0.823445737361908,-2.9040510654449463
1771038423453448400,21.479448486328124,-1.3558143377304077,1.8008294105529785,-2.858847141265869
1771038423472416000,21.498416015625,-2.294102668762207,2.8967208862304688,-2.4190244674682617
1771038423491383300,21.51738330078125,-3.1334309577941895,3.0750932693481445,-2.0854923725128174
1771038423510350600,21.5363505859375,-3.4022114276885986,2.327394723892212,-2.34694242477417
1771038423529318000,21.55531787109375,-3.008814573287964,1.321911334991455,-2.819751739501953
1771038423548285200,21.57428515625,-2.867093801498413,0.915075421333313,-2.8600687980651855
1771038423567252700,21.593252685546876,-3.4132070541381836,0.4862483739852905,-2.12580943107605
1771038423586220000,21.612219970703126,-3.8518078327178955,-0.2003636509180069,-0.8295543789863586
1771038423605187300,21.631187255859373,-3.87868595123291,-1.1704169511795044,0.17837251722812653
1771038423624155000,21.65015478515625,-4.0338454246521,-1.8741331100463867,0.21746785938739777
1771038423643122200,21.6691220703125,-4.761996269226074,-1.8435899019241333,0.0977383628487587
1771038423662089500,21.68808935546875,-5.132180213928223,-1.8765766620635986,0.6365211009979248
1771038423681056800,21.707056884765624,-4.3099565505981445,-2.153909206390381,1.673769474029541
1771038423700024300,21.7260244140625,-3.866468667984009,-1.5796962976455688,2.487441301345825
1771038423718991600,21.74499169921875,-3.462076187133789,-0.5338957905769348,3.1667230129241943
1771038423737959000,21.763958984375,-2.346637010574341,0.2834412455558777,3.9168648719787598
1771038423756926200,21.78292626953125,-1.1517854928970337,0.5155698657035828,4.0585856437683105
1771038423775893800,21.801893798828125,0.022296564653515816,0.41905322670936584,3.419620990753174
1771038423794860800,21.82086083984375,1.101083755493164,-0.01588248461484909,2.548527956008911
1771038423813828400,21.839828369140626,1.9538509845733643,-0.4838049113750458,1.6701042652130127
1771038423832795600,21.858795654296873,2.495077133178711,-0.7367029190063477,0.8503237962722778
1771038423851763000,21.877762939453124,2.8041746616363525,-0.8649845123291016,0.05497783049941063
1771038423870730500,21.89673046875,2.853044033050537,-0.7757982611656189,-0.48502662777900696
1771038423889697800,21.91569775390625,2.416886568069458,-0.5131264328956604,-0.41905322670936584
1771038423908665000,21.9346650390625,1.8829907178878784,0.14294235408306122,0.48502662777900696
1771038423927632400,21.95363232421875,1.4663809537887573,1.1936297416687012,1.6603304147720337
1771038423946599700,21.972599609375,0.9141591191291809,2.1355831623077393,2.416581153869629
1771038423965567200,21.991567138671876,0.2922987937927246,3.0885322093963623,2.796539068222046
1771038423984534500,22.010534423828126,-0.3222311735153198,3.9241952896118164,2.5998404026031494
1771038424003501800,22.029501708984377,-0.33322674036026,4.163654327392578,1.9437717199325562
1771038424022469000,22.04846923828125,0.7968730926513672,3.68595814704895,1.1679733991622925
1771038424041436700,22.067436767578126,2.5744895935058594,2.906494617462158,0.0977383628487587
1771038424060404000,22.086404052734373,4.024682521820068,2.503323793411255,-0.9712749719619751
1771038424079371300,22.105371337890624,4.311789035797119,1.7690644264221191,-2.1416919231414795
1771038424098338600,22.124338623046874,3.419926404953003,1.4037672281265259,-3.5393505096435547
1771038424117305900,22.143305908203125,2.525620460510254,1.6334524154663086,-3.3915212154388428
1771038424136273200,22.162273193359376,1.0106757879257202,2.6279401779174805,-2.1868958473205566
1771038424155240700,22.18124072265625,-1.2275327444076538,4.432435035705566,-1.8387030363082886
1771038424174208000,22.2002080078125,-3.1786348819732666,4.86126184463501,-1.4636319875717163
1771038424193175300,22.21917529296875,-3.2653777599334717,3.492924690246582,-0.6829468011856079
1771038424212142600,22.238142578125,-2.6251914501190186,2.2394301891326904,-0.4459312856197357
1771038424231110000,22.25710986328125,-1.904370903968811,1.5943571329116821,-0.9211840629577637
1771038424250077200,22.2760771484375,-1.0235038995742798,1.1850776672363281,-1.3976585865020752
1771038424269044500,22.29504443359375,-0.4676169753074646,0.5045742988586426,-1.6994258165359497
1771038424288012000,22.314011962890625,-0.6093376278877258,-0.07086031138896942,-1.9511021375656128
1771038424306979300,22.332979248046875,-1.0723731517791748,-0.07574722915887833,-2.1551308631896973
1771038424325946600,22.351946533203126,-1.1994329690933228,0.38728827238082886,-1.8521419763565063
1771038424344914000,22.370913818359377,-1.4156790971755981,0.6487383842468262,-1.3463460206985474
1771038424363881200,22.389881103515624,-1.8848233222961426,0.4838049113750458,-1.0348049402236938
1771038424382848500,22.4088486328125,-2.361297845840454,-0.018325943499803543,-0.7440332770347595
1771038424401816000,22.427816162109377,-2.780351161956787,-0.5351175665855408,-0.7232639193534851
1771038424420783400,22.446783447265624,-3.249495267868042,-0.9834923148155212,-1.148425817489624
1771038424439750700,22.465750732421874,-3.976424217224121,-0.998153030872345,-1.4660754203796387
1771038424458718000,22.484718017578125,-4.942812442779541,-0.3176496922969818,-1.0103703737258911
1771038424477685200,22.503685302734375,-6.006938934326172,0.7977893948554993,0.10140355676412582
1771038424496652500,22.522652587890626,-6.812058448791504,1.7934989929199219,1.2180644273757935
1771038424515620000,22.5416201171875,-6.706989765167236,2.0439536571502686,1.9401065111160278
1771038424534587400,22.56058740234375,-5.0674285888671875,1.1948515176773071,2.1746785640716553
1771038424553554700,22.5795546875,-2.849989652633667,-0.2577849328517914,2.333503484725952
1771038424572522000,22.59852197265625,-1.4950915575027466,-1.4098758697509766,3.1496188640594482
1771038424591489300,22.6174892578125,-1.7748676538467407,-1.85092031955719,3.973064422607422
1771038424610456600,22.63645654296875,-2.47003173828125,-1.5125012397766113,3.2730135917663574
1771038424629423900,22.655423828125,-1.8432844877243042,-1.1325433254241943,2.3628249168395996
1771038424648391200,22.67439111328125,-1.0540472269058228,-0.6010909676551819,2.897942543029785
1771038424667358500,22.6933583984375,-0.879339873790741,0.6206386089324951,3.5894415378570557
1771038424686326000,22.712325927734376,-0.24892739951610565,1.4233149290084839,4.047590255737305
1771038424705293300,22.731293212890623,0.7589994668960571,1.5393792390823364,3.8679957389831543
1771038424724260600,22.750260498046874,1.898873209953308,1.4953969717025757,3.1496188640594482
1771038424743228000,22.769227783203124,2.850600481033325,1.0030399560928345,2.4581198692321777
1771038424762195200,22.7881953125,3.3319618701934814,0.4361574649810791,1.8154901266098022
1771038424781162500,22.80716259765625,3.283092737197876,-0.10995566099882126,1.1068869829177856
1771038424800129800,22.8261298828125,2.8603742122650146,-0.6976075768470764,0.3176496922969818
1771038424819097000,22.84509716796875,2.2360706329345703,-1.0372483730316162,-0.37140578031539917
1771038424838064400,22.864064453125,1.6520837545394897,-1.0323615074157715,-0.6866120100021362
1771038424857031700,22.88303173828125,1.268460750579834,-0.7696896195411682,-0.4838049113750458
1771038424875999200,22.901999267578127,1.266017198562622,-0.4630354940891266,0.33231043815612793
1771038424894966300,22.92096630859375,1.1756092309951782,0.19792018830776215,1.4172062873840332
1771038424913933800,22.939933837890624,0.4462367296218872,1.3206896781921387,2.070831537246704
1771038424932901000,22.958901123046875,-0.5409207344055176,2.8270821571350098,2.2259912490844727
1771038424951868400,22.977868408203125,-1.352149248123169,3.8875434398651123,1.8985676765441895
1771038424970835700,22.996835693359376,-1.1688897609710693,3.8606653213500977,1.3072506189346313
1771038424989803000,23.015802978515627,0.041844237595796585,3.12396240234375,0.9382883310317993
1771038425008770300,23.034770263671874,1.229365348815918,2.3872594833374023,0.5632173418998718
1771038425027737600,23.053737548828124,2.388786792755127,1.9938626289367676,-0.15271618962287903
1771038425046705000,23.072704833984375,3.476125955581665,1.6420044898986816,-0.9126319885253906
1771038425065672200,23.091672119140625,3.276984214782715,0.6841685771942139,-2.075718402862549
1771038425084639500,23.110639404296876,2.620915412902832,-0.6218603253364563,-2.746448040008545
1771038425103606800,23.129606689453126,1.9660682678222656,-1.3964369297027588,-1.517388105392456
1771038425122574000,23.148573974609373,0.282524973154068,-0.18081597983837128,-0.15515965223312378
1771038425141541400,23.167541259765624,-1.1969895362854004,1.9217805862426758,0.2919933497905731
1771038425160508700,23.1865087890625,-2.237903118133545,2.5949535369873047,0.5668824911117554
1771038425179476000,23.20547607421875,-2.581209182739258,2.2589778900146484,0.5583304166793823
1771038425198443300,23.224443359375,-2.4468188285827637,1.72141695022583,0.4153880476951599
1771038425217410600,23.24341064453125,-1.8603886365890503,1.29503333568573,0.20280711352825165
1771038425236377900,23.2623779296875,-0.9917389750480652,1.158199667930603,-0.043982263654470444
1771038425255345200,23.28134521484375,-0.39675667881965637,0.9944878816604614,-0.18325942754745483
1771038425274312400,23.3003125,-0.3075704276561737,0.6707295179367065,-0.3274235129356384
1771038425293279700,23.31927978515625,-0.6337721943855286,0.056199558079242706,-0.5009090900421143
1771038425312247000,23.3382470703125,-0.9868520498275757,-0.6548470258712769,-0.7134900689125061
1771038425331214300,23.35721435546875,-1.0809252262115479,-0.9688315391540527,-0.8906408548355103
1771038425350181600,23.376181640625,-0.9221003651618958,-0.8747583627700806,-0.7721330523490906
1771038425369149000,23.39514892578125,-0.9721912741661072,-0.5900954008102417,-0.36163195967674255
1771038425388116200,23.4141162109375,-1.3435970544815063,-0.31154105067253113,0.19669845700263977
1771038425407083500,23.43308349609375,-1.877492904663086,-0.12950333952903748,0.5522217750549316
1771038425426050800,23.45205078125,-2.3820672035217285,-0.17226386070251465,0.5119046568870544
1771038425445018000,23.47101806640625,-2.680169105529785,-0.5375609993934631,0.43860089778900146
1771038425463985400,23.4899853515625,-3.1163265705108643,-1.1447606086730957,0.6194168925285339
1771038425482952700,23.50895263671875,-3.579362154006958,-1.5845832824707031,1.148425817489624
1771038425501920000,23.527919921875,-3.3545639514923096,-1.588248372077942,2.023184061050415
1771038425520887300,23.54688720703125,-2.4431536197662354,-0.9334014058113098,2.852738618850708
1771038425539854600,23.5658544921875,-1.757763385772705,-0.627968966960907,3.252243995666504
1771038425558822000,23.58482177734375,-1.3668099641799927,-1.6432262659072876,3.051880359649658
1771038425577789200,23.6037890625,-0.5238165259361267,-3.3206608295440674,2.579071044921875
1771038425596756500,23.622756591796875,-0.29413139820098877,-4.288270950317383,2.372598886489868
1771038425615723800,23.641723876953126,-0.8011491298675537,-3.929082155227661,2.3261730670928955
1771038425634691000,23.660691162109377,-1.4938697814941406,-2.816086530685425,2.5302019119262695
1771038425653658000,23.679658203125,-2.0045528411865234,-2.4239113330841064,2.657261848449707
1771038425672625400,23.69862548828125,-2.0717480182647705,-2.466671943664551,2.7989823818206787
1771038425691592700,23.7175927734375,-2.2647812366485596,-1.7531819343566895,2.8625123500823975
1771038425710560000,23.73656005859375,-2.2733333110809326,-0.42882707715034485,2.7195699214935303
1771038425729527300,23.75552734375,-1.8286237716674805,0.5632173418998718,2.171013355255127
1771038425748494600,23.77449462890625,-0.9697478413581848,0.9187406301498413,1.5515965223312378
1771038425767462000,23.7934619140625,-0.05100720748305321,0.8148936033248901,1.1142174005508423
1771038425786429200,23.81242919921875,0.5464185476303101,0.5510000586509705,0.9126319885253906
1771038425805396500,23.831396484375,0.7272345423698425,0.19303326308727264,0.7709113359451294
1771038425824363800,23.85036376953125,0.6075050234794617,-0.04520399495959282,0.6829468011856079
1771038425843331000,23.8693310546875,0.6820304989814758,-0.17226386070251465,0.7819069027900696
1771038425862298000,23.888298095703124,0.8811724185943604,-0.3384190797805786,0.8881973624229431
1771038425881265400,23.907265380859375,0.9239329695701599,-0.4838049113750458,0.7831286191940308
1771038425900232700,23.926232666015625,0.9190460443496704,-0.6365211009979248,0.667064368724823
1771038425919200000,23.945199951171876,1.0558797121047974,-0.748920202255249,0.5998691916465759
