time,seconds_elapsed,z,y,x
1771038402127426000,0.153426025390625,8.798408508300781,3.005385160446167,-2.572284460067749
1771038402146394000,0.17239404296875,8.922835350036621,3.160918712615967,-2.7900311946868896
1771038402165362200,0.191362060546875,9.899106979370117,3.2135608196258545,-2.242074728012085
1771038402184330500,0.21033056640625,10.308279991149902,3.022135019302368,-1.6366907358169556
1771038402203298600,0.229298583984375,9.485149383544922,3.335594654083252,-1.5194423198699951
1771038402222266600,0.2482666015625,8.786444664001465,3.8835511207580566,-1.6534404754638672
1771038402241234700,0.267234619140625,8.528019905090332,4.675575256347656,-2.306680917739868
1771038402260203000,0.286203125,7.891529083251953,4.445864677429199,-2.0985054969787598
1771038402279171000,0.305171142578125,8.061419486999512,4.287938117980957,-1.8975083827972412
1771038402298139100,0.32413916015625,9.205188751220703,3.809373617172241,-2.8929226398468018
1771038402317107200,0.343107177734375,10.109675407409668,2.148754835128784,-2.9383862018585205
1771038402336075500,0.362075439453125,9.162117958068848,1.9405791759490967,-2.816352367401123
1771038402355043600,0.381043701171875,7.008577346801758,2.799602508544922,-2.148754835128784
1771038402374011600,0.40001171875,6.455835342407227,4.3310089111328125,-3.6873397827148438
1771038402392979700,0.418979736328125,7.22871732711792,4.034298896789551,-5.127819061279297
1771038402411948000,0.437947998046875,8.602197647094727,2.3736801147460938,-4.254438877105713
1771038402430916000,0.456916015625,9.375079154968262,1.5409778356552124,-3.6873397827148438
1771038402449884200,0.47588427734375,8.803194046020508,1.5601203441619873,-2.809173822402954
1771038402468852500,0.4948525390625,8.470592498779297,2.1655044555664062,-3.1489546298980713
1771038402487820300,0.5138203125,9.590433120727539,2.1822543144226074,-2.861815929412842
1771038402506788600,0.53278857421875,9.834501266479492,2.3186452388763428,-2.6608188152313232
1771038402525756700,0.551756591796875,7.324429988861084,2.4119651317596436,-1.4572290182113647
1771038402544725000,0.57072509765625,7.795815944671631,3.7639100551605225,-0.8685946464538574
1771038402563693000,0.589693115234375,9.944570541381836,4.156332969665527,0.39960137009620667
1771038402582661000,0.6086611328125,10.262816429138184,3.407379388809204,0.6963114142417908
1771038402601629200,0.627629150390625,9.415757179260254,3.029313564300537,0.6628118753433228
1771038402620597500,0.646597412109375,8.635697364807129,3.7016966342926025,-0.26560330390930176
1771038402639565600,0.665565673828125,8.233702659606934,3.5676984786987305,-0.42831525206565857
1771038402658533600,0.68453369140625,8.595019340515137,2.4526431560516357,-0.08614161610603333
1771038402677501700,0.703501708984375,7.238288402557373,1.7012969255447388,0.6340979933738708
1771038402696469800,0.7224697265625,8.86780071258545,3.2542388439178467,1.222732424736023
1771038402715438000,0.74143798828125,11.452049255371094,3.3714871406555176,0.7369893789291382
1771038402734406100,0.76040625,12.260823249816895,5.972485542297363,2.6967110633850098
1771038402753374200,0.779374267578125,8.327022552490234,5.302495002746582,4.192225456237793
1771038402772342300,0.79834228515625,8.140382766723633,3.4432718753814697,2.251646041870117
1771038402791310600,0.817310546875,8.851051330566406,3.9457645416259766,3.060420274734497
1771038402810278700,0.836278564453125,9.329615592956543,4.66361141204834,3.8117663860321045
1771038402829246700,0.855246826171875,9.616754531860352,4.957928657531738,3.869194269180298
1771038402848214800,0.87421484375,9.549755096435547,5.223531723022461,4.252045631408691
1771038402867183000,0.89318310546875,8.6907320022583,5.532206058502197,4.326223373413086
1771038402886151200,0.912151123046875,6.238088607788086,5.548955917358398,3.924229145050049
1771038402905119200,0.931119140625,5.9676995277404785,5.615954875946045,3.806980848312378
1771038402924087300,0.95008740234375,7.645068168640137,5.111069202423096,4.577469825744629
1771038402943055600,0.9690556640625,8.350951194763184,4.948357105255127,4.567898273468018
1771038402962023700,0.988023681640625,7.264609336853027,4.895715236663818,5.010570526123047
1771038402980991700,1.00699169921875,7.393822193145752,4.855037212371826,5.223531723022461
1771038402999959800,1.025959716796875,7.89631462097168,4.302295207977295,4.615755081176758
1771038403018928000,1.04492822265625,6.9822564125061035,3.4432718753814697,3.510270833969116
1771038403037896200,1.063896240234375,7.405786037445068,3.084348440170288,2.8594231605529785
1771038403056864300,1.0828642578125,7.259823799133301,3.0101709365844727,2.9623143672943115
1771038403075832600,1.10183251953125,6.025127410888672,3.404986619949341,3.294916868209839
1771038403094800600,1.120800537109375,4.761716842651367,3.6466617584228516,3.7710886001586914
1771038403113768700,1.139768798828125,4.060619831085205,3.85483717918396,4.2592244148254395
1771038403132736800,1.15873681640625,3.799802303314209,4.132404804229736,5.175675392150879
1771038403151705000,1.177705078125,3.146561861038208,4.450650215148926,5.649454116821289
1771038403170673200,1.196673095703125,3.383451223373413,4.876572608947754,6.9344000816345215
1771038403189641200,1.21564111328125,4.35254430770874,4.697110652923584,7.731209754943848
1771038403208609300,1.234609375,6.422336101531982,4.170690059661865,8.3629150390625
1771038403227577600,1.25357763671875,8.874979019165039,4.216153621673584,7.668996810913086
1771038403246545700,1.272545654296875,9.387042999267578,3.8572301864624023,8.434700012207031
1771038403265513700,1.291513671875,8.915657043457031,3.445664644241333,10.470992088317871
1771038403284481800,1.310481689453125,11.176874160766602,5.19242525100708,5.26899528503418
1771038403303450000,1.3294501953125,13.222738265991211,3.462414264678955,5.242674350738525
1771038403322418200,1.348418212890625,12.562318801879883,3.211168050765991,6.953542709350586
1771038403341386200,1.36738623046875,10.971092224121094,5.2977094650268555,6.465406894683838
1771038403360354300,1.386354248046875,9.985248565673828,5.608776092529297,5.111069202423096
1771038403379322600,1.405322509765625,8.81515884399414,5.61116886138916,4.419543266296387
1771038403398290700,1.424290771484375,9.767501831054688,5.285745143890381,3.737588882446289
1771038403417258800,1.4432587890625,8.628518104553223,5.034498691558838,3.4576287269592285
1771038403436227000,1.46222705078125,6.056233882904053,4.709074974060059,3.7232320308685303
1771038403455195100,1.481195068359375,5.120640277862549,4.462614059448242,3.950550079345703
1771038403474163200,1.5001630859375,6.245266914367676,4.522434711456299,3.9433717727661133
1771038403493131300,1.51913134765625,8.075776100158691,3.893122434616089,3.730410575866699
1771038403512099600,1.538099609375,6.977470874786377,5.903093338012695,0.3852444589138031
1771038403531067600,1.557067626953125,5.6685967445373535,5.029713153839111,2.194218397140503
1771038403550035700,1.57603564453125,5.283352375030518,6.0370917320251465,4.47697114944458
1771038403569004000,1.595004150390625,-0.40677985548973083,6.343372821807861,2.806781053543091
1771038403587972000,1.61397216796875,3.744767427444458,4.445864677429199,0.12681959569454193
1771038403606940200,1.632940185546875,6.216553211212158,3.6993038654327393,-1.4093725681304932
1771038403625908200,1.651908203125,1.9022940397262573,5.570491313934326,-1.8855443000793457
1771038403644876500,1.67087646484375,-1.6175481081008911,7.168896675109863,1.7491533756256104
1771038403663844600,1.6898447265625,2.737389087677002,9.600004196166992,7.144968509674072
1771038403682813000,1.70881298828125,7.164111137390137,12.696316719055176,5.661418437957764
1771038403701781000,1.727781005859375,9.554540634155273,11.315658569335938,5.924628734588623
1771038403720749000,1.7467490234375,8.72183895111084,10.363314628601074,3.321237802505493
1771038403739717400,1.76571728515625,7.214360237121582,10.686346054077148,3.4408788681030273
1771038403758685400,1.784685546875,6.362515449523926,11.906685829162598,2.620140790939331
1771038403777653500,1.803653564453125,7.1473612785339355,12.387642860412598,1.674975872039795
1771038403805070600,1.831070556640625,9.312865257263184,9.32722282409668,-1.28255295753479
1771038403824039000,1.850038818359375,10.226923942565918,10.63370418548584,-1.397408366203308
1771038403843007000,1.869007080078125,8.666803359985352,10.829915046691895,-0.17228323221206665
1771038403861975000,1.88797509765625,5.608776092529297,10.882556915283203,-1.1102696657180786
1771038403880943400,1.906943359375,2.6177480220794678,9.097511291503906,-3.1202406883239746
1771038403899911400,1.925911376953125,2.770888566970825,8.082955360412598,-5.704489231109619
1771038403918879500,1.94487939453125,4.2209391593933105,6.393621921539307,-6.455835342407227
1771038403937847800,1.963847900390625,3.0005996227264404,5.594419479370117,-5.532206058502197
1771038403956816000,1.98281591796875,-0.9667003750801086,7.518248558044434,-3.0580272674560547
1771038403975784000,2.001783935546875,-3.397808074951172,6.795616149902344,-2.124826431274414
1771038403994752300,2.020752197265625,-4.704289436340332,4.082155227661133,-2.273181438446045
1771038404013720300,2.03972021484375,-4.4410786628723145,2.2205393314361572,-2.794816732406616
1771038404032688600,2.058688720703125,-3.5461630821228027,1.038485050201416,-2.847458839416504
1771038404051656700,2.07765673828125,-2.8809585571289062,0.7417750358581543,-1.1820544004440308
1771038404070624800,2.096624755859375,-2.531606435775757,0.9954141974449158,0.5216353535652161
1771038404089593000,2.115593017578125,-0.6460621356964111,1.8472590446472168,-0.6604190468788147
1771038404108561200,2.13456103515625,1.789831280708313,2.335394859313965,-1.8472590446472168
1771038404127529500,2.153529541015625,1.1485549211502075,3.6849467754364014,-0.9236295223236084
1771038404146497500,2.17249755859375,-0.15314064919948578,4.919643402099609,-0.11006984114646912
1771038404165465600,2.191465576171875,1.0767701864242554,6.51326322555542,-0.7704889178276062
1771038404184434000,2.210433837890625,3.3308091163635254,8.805587768554688,-2.4981069564819336
1771038404203402000,2.229402099609375,6.556334018707275,10.15035343170166,-5.087141036987305
1771038404222370300,2.248370361328125,8.37009334564209,11.22233772277832,-6.149554252624512
1771038404241338400,2.26733837890625,9.590433120727539,11.624332427978516,-6.704689025878906
1771038404260306700,2.286306640625,7.781459331512451,12.208181381225586,-6.57547664642334
1771038404279274800,2.305274658203125,7.0923261642456055,12.571889877319336,-7.168896675109863
1771038404298243000,2.3242431640625,9.183652877807617,11.997612953186035,-8.70508861541748
1771038404317211100,2.343211181640625,9.379864692687988,9.997213363647461,-8.882157325744629
1771038404336179500,2.362179443359375,7.125825881958008,8.537590980529785,-7.159325122833252
1771038404355147500,2.3811474609375,4.709074974060059,7.269395351409912,-4.809573650360107
1771038404374115800,2.40011572265625,2.8809585571289062,6.221338748931885,-3.28773832321167
1771038404393084000,2.419083984375,2.3784656524658203,6.537191390991211,-3.2063822746276855
1771038404412052200,2.43805224609375,3.8763725757598877,5.838487148284912,-4.570291042327881
1771038404431020300,2.457020263671875,5.699703693389893,4.42193603515625,-6.106483459472656
1771038404459472600,2.48547265625,5.087141036987305,3.627519130706787,-6.245266914367676
1771038404478440700,2.504440673828125,3.2781670093536377,4.153940200805664,-5.560919761657715
1771038404497409000,2.523408935546875,2.2636101245880127,4.661218643188477,-5.240281581878662
1771038404516377300,2.54237744140625,3.5365917682647705,4.2592244148254395,-5.675775527954102
1771038404535345400,2.561345458984375,5.015356063842773,4.082155227661133,-6.106483459472656
1771038404554313700,2.580313720703125,6.096911907196045,3.7567315101623535,-6.068198204040527
1771038404573281800,2.59928173828125,5.900700569152832,3.88594388961792,-5.513063430786133
1771038404592250000,2.61825,4.661218643188477,4.07258415222168,-4.551148891448975
1771038404611218200,2.63721826171875,4.254438877105713,5.4795637130737305,-3.1345977783203125
1771038404630186500,2.6561865234375,6.345765590667725,6.843472957611084,-3.383451223373413
1771038404649154600,2.675154541015625,10.001998901367188,6.484549522399902,-4.579862594604492
1771038404668123000,2.694122802734375,11.940184593200684,5.560919761657715,-5.623133182525635
1771038404687091200,2.71309130859375,11.145768165588379,4.603790760040283,-5.4795637130737305
1771038404706059300,2.732059326171875,8.819944381713867,4.278367042541504,-5.60399055480957
1771038404725027600,2.751027587890625,5.737988471984863,5.096712112426758,-4.53200626373291
1771038404743995600,2.76999560546875,5.402993679046631,5.757131099700928,-4.216153621673584
1771038404762964000,2.7889638671875,8.422736167907715,6.092126369476318,-5.627918720245361
1771038404781932300,2.807932373046875,11.547761917114258,5.608776092529297,-7.676175117492676
1771038404800900400,2.826900390625,12.547962188720703,4.986642360687256,-9.17886734008789
1771038404819868700,2.84586865234375,11.729616165161133,4.828716278076172,-10.03549861907959
1771038404838836700,2.864836669921875,11.131410598754883,5.158925533294678,-10.279565811157227
1771038404857805000,2.88380517578125,12.016755104064941,5.771488189697266,-9.949356079101562
1771038404876773400,2.9027734375,13.95972728729248,6.4079790115356445,-10.112068176269531
1771038404895741700,2.92174169921875,16.26162338256836,6.187839508056641,-10.155138969421387
1771038404914709800,2.940709716796875,16.673187255859375,5.465207099914551,-10.231709480285645
1771038404933678000,2.959677978515625,14.36172103881836,5.335994720458984,-9.556933403015137
1771038404952646400,2.978646484375,10.202995300292969,6.005984783172607,-8.441878318786621
1771038404971614700,2.99761474609375,7.183253765106201,6.058627128601074,-8.303094863891602
1771038404990582800,3.016582763671875,5.527420520782471,5.307280540466309,-8.671588897705078
1771038405009551000,3.035551025390625,4.6995038986206055,4.8813581466674805,-7.867600917816162
1771038405028519400,3.05451953125,4.015156269073486,4.374079704284668,-6.656832695007324
1771038405047487700,3.07348779296875,2.967100143432617,4.158725738525391,-5.302495002746582
1771038405066455800,3.092455810546875,1.7084753513336182,4.622933387756348,-2.761317253112793
1771038405085424000,3.111424072265625,0.5694918036460876,5.06799840927124,-3.005385160446167
1771038405104392400,3.130392333984375,0.5838487148284912,4.766502857208252,-2.0721843242645264
1771038405123360800,3.14936083984375,1.3304094076156616,4.206582069396973,-2.344966173171997
1771038405142329000,3.1683291015625,1.8616160154342651,3.8668015003204346,-2.100898265838623
1771038405161297400,3.18729736328125,2.0482561588287354,3.1202406883239746,-2.823530673980713
1771038405180265500,3.206265380859375,1.828116536140442,3.5988051891326904,-3.1441688537597656
1771038405199233800,3.22523388671875,1.521835207939148,3.5988051891326904,-4.541577339172363
1771038405218202000,3.2442021484375,2.1343977451324463,3.5748770236968994,-5.733202934265137
1771038405237170400,3.26317041015625,1.3782658576965332,3.3882367610931396,-6.7621169090271
1771038405256138800,3.282138671875,1.0719845294952393,4.039084434509277,-7.786244869232178
1771038405275106800,3.30110693359375,1.526620864868164,4.59421968460083,-9.040083885192871
1771038405294075100,3.3200751953125,0.2632105052471161,3.431307554244995,-10.810772895812988
1771038405313043500,3.33904345703125,-2.359323024749756,2.761317253112793,-11.504691123962402
1771038405332011800,3.35801171875,-1.397408366203308,3.7471601963043213,-10.293923377990723
1771038405350980000,3.37697998046875,0.23449662327766418,5.450850009918213,-8.087740898132324
1771038405369948400,3.395948486328125,3.2590243816375732,5.924628734588623,-6.412764549255371
1771038405388916700,3.414916748046875,5.2115678787231445,6.159125328063965,-6.0538411140441895
1771038405407885000,3.433885009765625,3.7806596755981445,6.843472957611084,-6.283552169799805
1771038405426853400,3.452853271484375,2.3497519493103027,6.963113784790039,-4.934000492095947
1771038405445821700,3.47182177734375,1.5122638940811157,5.465207099914551,-5.091926574707031
1771038405464790000,3.4907900390625,0.0526420995593071,5.704489231109619,-3.5509488582611084
1771038405483758300,3.50975830078125,0.0526420995593071,5.704489231109619,-1.919043779373169
1771038405502726700,3.5287265625,-0.02871387079358101,6.9583282470703125,-1.612762451171875
1771038405521695000,3.547695068359375,2.799602508544922,6.369693756103516,-3.28773832321167
1771038405540663300,3.566663330078125,6.51326322555542,4.479363918304443,-5.359922885894775
1771038405559631600,3.585631591796875,4.07258415222168,5.168497085571289,-2.1296122074127197
1771038405578600000,3.604599853515625,2.4023938179016113,5.441278457641602,0.33499518036842346
1771038405597568300,3.623568359375,2.4646072387695312,4.54636287689209,0.23449662327766418
1771038405616536600,3.64253662109375,3.594019651412964,3.3403804302215576,-0.8327022790908813
1771038405635505000,3.6615048828125,5.446064472198486,3.421736478805542,-1.2251251935958862
1771038405654473200,3.68047314453125,6.929614543914795,4.058227062225342,-0.22013968229293823
1771038405673441500,3.699441650390625,7.915457248687744,4.316651821136475,1.526620864868164
1771038405692410000,3.71841015625,6.896114826202393,4.756931304931641,3.2446675300598145
1771038405711378400,3.73737841796875,7.29810905456543,4.058227062225342,2.2779672145843506
1771038405730346800,3.7563466796875,9.891928672790527,2.641676187515259,-0.4737788736820221
1771038405749315000,3.775315185546875,10.614561080932617,2.541177749633789,-1.9286150932312012
1771038405768283400,3.794283447265625,10.04985523223877,3.996013879776001,-0.35413774847984314
1771038405787251700,3.813251708984375,9.21715259552002,5.154139995574951,2.4981069564819336
1771038405806220000,3.832219970703125,10.068997383117676,5.024927616119385,3.2542388439178467
1771038405825188400,3.851188232421875,11.95454216003418,3.8333017826080322,2.5986053943634033
1771038405844157000,3.870156982421875,13.85922908782959,3.8572301864624023,2.5363919734954834
1771038405863125200,3.889125244140625,13.61037540435791,4.646861553192139,3.4169507026672363
1771038405882093600,3.908093505859375,12.80160140991211,5.594419479370117,3.996013879776001
1771038405901062000,3.927061767578125,11.140982627868652,7.015756130218506,4.024727821350098
1771038405920030200,3.9460302734375,11.983255386352539,8.126026153564453,4.015156269073486
1771038405938998500,3.96499853515625,13.395021438598633,7.814958572387695,2.871387243270874
1771038405957967000,3.983967041015625,14.82114315032959,7.83410120010376,1.5744773149490356
1771038405976935400,4.002935302734375,14.7206449508667,8.102097511291504,0.727418065071106
1771038405995903700,4.02190380859375,12.681960105895996,7.456035137176514,0.851844847202301
1771038406014872000,4.0408720703125,10.963912963867188,6.3840508460998535,0.2153540402650833
1771038406033840400,4.05984033203125,8.973084449768066,5.757131099700928,-0.3684946894645691
1771038406052809000,4.07880908203125,7.3746795654296875,5.637490272521973,-0.37806597352027893
1771038406071777300,4.09777734375,6.173482418060303,5.460421085357666,-1.4021940231323242
1771038406090745600,4.11674560546875,6.178267955780029,4.287938117980957,-2.234896421432495
1771038406109714200,4.135714111328125,5.034498691558838,3.8668015003204346,-3.1489546298980713
1771038406128682500,4.1546826171875,4.029513359069824,3.6227335929870605,-4.201796531677246
1771038406147650800,4.17365087890625,2.641676187515259,3.4791641235351562,-4.67078971862793
1771038406166619100,4.192619140625,1.3639088869094849,3.0628130435943604,-5.714060306549072
1771038406185587700,4.211587646484375,0.7322037220001221,2.885744094848633,-6.9344000816345215
1771038406204556000,4.23055615234375,2.3018953800201416,3.4648072719573975,-7.8628153800964355
1771038406223524400,4.2495244140625,5.824130535125732,4.450650215148926,-8.662017822265625
1771038406242493000,4.268492919921875,7.690532207489014,6.005984783172607,-8.513663291931152
1771038406261461200,4.287461181640625,8.384450912475586,6.704689025878906,-7.389036178588867
1771038406280429600,4.3064296875,7.987242221832275,6.273981094360352,-6.522834300994873
1771038406299398000,4.32539794921875,6.9583282470703125,5.848058700561523,-5.5034918785095215
1771038406318366500,4.344366455078125,5.8959150314331055,5.20678186416626,-4.890929698944092
1771038406337334800,4.363334716796875,5.115854740142822,4.493721008300781,-4.785645484924316
1771038406356303000,4.38230322265625,4.455435752868652,3.8907296657562256,-4.73300313949585
1771038406384755700,4.410755615234375,5.737988471984863,3.7663028240203857,-3.7232320308685303
1771038406403724300,4.429724365234375,5.173282623291016,4.077369689941406,-2.967100143432617
1771038406422692600,4.448692626953125,5.632704734802246,4.579862594604492,-3.6227335929870605
1771038406441661200,4.4676611328125,6.632904529571533,4.900500774383545,-4.211368083953857
1771038406460629500,4.48662939453125,7.192824840545654,5.580062389373779,-5.307280540466309
1771038406479597800,4.505597900390625,10.561919212341309,7.087540626525879,-7.130611419677734
1771038406498566400,4.52456640625,15.768701553344727,9.863214492797852,-6.814758777618408
1771038406517534700,4.54353466796875,14.883357048034668,12.184252738952637,-5.651846885681152
1771038406536503000,4.5625029296875,14.10808277130127,12.710674285888672,-7.475177764892578
1771038406555471600,4.5814716796875,14.902499198913574,12.88774299621582,-10.557133674621582
1771038406574440000,4.60043994140625,13.878371238708496,12.988241195678711,-12.509676933288574
1771038406593408500,4.619408447265625,12.973884582519531,12.945170402526855,-13.48594856262207
1771038406612376800,4.638376953125,10.317851066589355,12.88774299621582,-12.40439224243164
1771038406631345400,4.657345458984375,7.6043901443481445,12.174681663513184,-12.452248573303223
1771038406650313700,4.676313720703125,5.618347644805908,10.796415328979492,-10.805987358093262
1771038406669282300,4.6952822265625,3.94815731048584,8.95394229888916,-7.211967468261719
1771038406688250600,4.714250732421875,2.2444677352905273,7.11146879196167,-3.6610186100006104
1771038406707219000,4.733218994140625,3.373879909515381,4.847858905792236,-2.9958138465881348
1771038406726187500,4.7521875,5.536991596221924,2.4837498664855957,-4.211368083953857
1771038406745155800,4.77115576171875,3.249453067779541,3.16331148147583,-2.196611166000366
1771038406764124400,4.79012451171875,0.5790630578994751,2.9383862018585205,-0.19621145725250244
1771038406783092700,4.8090927734375,-2.1200408935546875,0.6652047038078308,-0.2105683982372284
1771038406802061300,4.828061279296875,-0.8662018179893494,0.9332008361816406,0.2392822653055191
1771038406821029600,4.847029541015625,-0.8997012972831726,1.1437692642211914,0.0526420995593071
1771038406839998000,4.865998046875,-1.0480563640594482,-0.7034898400306702,-0.4737788736820221
1771038406858966500,4.884966552734375,-2.895315408706665,1.6510475873947144,1.3639088869094849
1771038406877934800,4.903934814453125,-2.210968017578125,2.234896421432495,1.2634103298187256
1771038406896903400,4.9229033203125,-1.0480563640594482,3.541377544403076,0.9906286001205444
1771038406915871700,4.941871826171875,0.16271193325519562,5.513063430786133,0.5694918036460876
1771038406934840300,4.96084033203125,1.8041882514953613,7.752745151519775,1.1485549211502075
1771038406953808600,4.97980859375,2.3784656524658203,10.542776107788086,2.1774685382843018
1771038406972777200,4.998777099609375,2.1535403728485107,13.476377487182617,1.4213366508483887
1771038406991745500,5.01774560546875,1.612762451171875,15.701702117919922,1.062413215637207
1771038407010714000,5.036714111328125,0.8470591902732849,17.156538009643555,0.885344386100769
1771038407029682400,5.055682373046875,0.9523434042930603,17.01775550842285,0.7657032608985901
1771038407048651000,5.074651123046875,0.9571290612220764,15.294921875,1.2681959867477417
1771038407067619300,5.093619384765625,0.43549370765686035,13.567304611206055,2.4646072387695312
1771038407086588000,5.112587890625,-0.363709032535553,11.820544242858887,3.373879909515381
1771038407105556200,5.13155615234375,-0.8039883971214294,9.8871431350708,3.7663028240203857
1771038407124524800,5.15052490234375,-1.100698471069336,8.12123966217041,3.7328033447265625
1771038407143493000,5.1694931640625,-1.057627558708191,6.920042991638184,3.249453067779541
1771038407162461700,5.188461669921875,-0.8470591902732849,5.891129493713379,2.943171739578247
1771038407181430000,5.207429931640625,-0.7465606927871704,4.996213912963867,3.177668571472168
1771038407200398600,5.226398681640625,-0.9236295223236084,4.201796531677246,3.838087558746338
1771038407219367000,5.245366943359375,-0.46899324655532837,3.5605201721191406,4.206582069396973
1771038407238335500,5.26433544921875,0.24406790733337402,3.3403804302215576,4.216153621673584
1771038407257303800,5.2833037109375,0.8231309652328491,3.311666488647461,3.9625144004821777
1771038407276272400,5.3022724609375,0.7896314859390259,3.187239646911621,3.871587038040161
1771038407295240700,5.32124072265625,0.6652047038078308,3.1441688537597656,3.594019651412964
1771038407314209300,5.340209228515625,0.7130611538887024,2.871387243270874,3.2303106784820557
1771038407333177600,5.359177490234375,0.7848458290100098,2.68953275680542,3.2685956954956055
1771038407352146200,5.378146240234375,0.5599204897880554,3.0723843574523926,3.5461630821228027
1771038407371114500,5.397114501953125,0.5264210104942322,3.728017568588257,3.5988051891326904
1771038407390083000,5.4160830078125,0.8039883971214294,4.957928657531738,4.067798614501953
1771038407409051400,5.435051513671875,1.5026925802230835,6.38883638381958,5.178068161010742
1771038407428020000,5.45402001953125,1.0480563640594482,8.015955924987793,7.250252723693848
1771038407446988300,5.47298828125,0.727418065071106,10.614561080932617,10.159924507141113
1771038407465956900,5.491956787109375,0.851844847202301,13.921442031860352,11.428120613098145
1771038407484925200,5.51092529296875,2.746960401535034,16.342979431152344,10.96869945526123
1771038407503893800,5.529893798828125,3.7663028240203857,17.539390563964844,10.030712127685547
1771038407522862000,5.548862060546875,3.6323046684265137,17.749958038330078,9.245866775512695
1771038407541830700,5.56783056640625,3.4121651649475098,16.089340209960938,8.202595710754395
1771038407560799000,5.586799072265625,2.699103832244873,13.572090148925781,7.566105365753174
1771038407579767600,5.605767578125,1.3351950645446777,10.949556350708008,8.298309326171875
1771038407598736000,5.62473583984375,0.6460621356964111,8.925228118896484,8.891729354858398
1771038407617704400,5.643704345703125,1.0480563640594482,6.867401123046875,8.451449394226074
1771038407636672800,5.6626728515625,1.3830515146255493,4.718646049499512,7.255038261413574
1771038407655641300,5.681641357421875,0.46420758962631226,3.139383316040039,6.0538411140441895
1771038407674609700,5.700609619140625,-0.8662018179893494,1.9573289155960083,4.996213912963867
1771038407693578200,5.719578125,-1.7563318014144897,1.191625714302063,4.59421968460083
1771038407712546600,5.738546630859375,-1.8616160154342651,0.9332008361816406,4.536791801452637
1771038407731515100,5.75751513671875,-1.3256237506866455,0.6221339106559753,4.551148891448975
1771038407750483500,5.7764833984375,-0.4785645306110382,0.6317051649093628,4.536791801452637
1771038407769452000,5.7954521484375,0.9044869542121887,0.6508477330207825,4.651647090911865
1771038407788420400,5.81442041015625,0.7369893789291382,1.698904037475586,4.8574299812316895
1771038407807389000,5.833388916015625,0.23449662327766418,1.9669002294540405,5.020142078399658
1771038407826357200,5.852357177734375,0.35892340540885925,2.895315408706665,5.015356063842773
1771038407845325800,5.871325927734375,0.45942193269729614,2.1535403728485107,4.1970109939575195
1771038407864294100,5.890294189453125,1.0193424224853516,1.5984054803848267,3.6849467754364014
1771038407883262700,5.9092626953125,0.8231309652328491,2.201396942138672,3.996013879776001
1771038407902231000,5.92823095703125,0.7513462901115417,2.5603201389312744,6.082555294036865
1771038407921199600,5.94719970703125,0.17228323221206665,0.97148597240448,7.307680130004883
1771038407940168000,5.96616796875,0,0.9523434042930603,9.66221809387207
1771038407959136500,5.985136474609375,-0.4019941985607147,2.383251428604126,13.562519073486328
1771038407978104800,6.004104736328125,0.2679961323738098,3.981656789779663,16.32862091064453
1771038407997073200,6.0230732421875,1.8424733877182007,4.431507587432861,16.146766662597656
1771038408016041700,6.042041748046875,2.60339093208313,4.086941242218018,15.218352317810059
1771038408035010000,6.061010009765625,0.6221339106559753,4.618147850036621,15.203994750976562
1771038408053978600,6.079978515625,-0.5120640397071838,5.532206058502197,15.524633407592773
1771038408072947000,6.098947021484375,0.2392822653055191,6.082555294036865,15.931412696838379
1771038408091915500,6.11791552734375,1.6031911373138428,6.4941205978393555,15.18006706237793
1771038408110883800,6.1368837890625,1.4117653369903564,5.814558982849121,13.232309341430664
1771038408129852400,6.155852294921875,0.04785645380616188,4.9531426429748535,11.394621849060059
1771038408148820700,6.17482080078125,-0.6029912829399109,4.321437835693359,9.748359680175781
1771038408167789300,6.193789306640625,-1.2969099283218384,3.565305709838867,7.609176158905029
1771038408186757600,6.212757568359375,-1.129412293434143,2.799602508544922,6.178267955780029
1771038408205726200,6.231726318359375,-0.8087740540504456,2.1678972244262695,5.843272686004639
1771038408224694500,6.250694580078125,0.04785645380616188,1.7324036359786987,6.020341873168945
1771038408243662800,6.269662841796875,1.2921242713928223,2.076970100402832,6.661618232727051
1771038408262631400,6.28863134765625,1.8951154947280884,2.3736801147460938,7.369893550872803
1771038408281599700,6.307599853515625,1.4500504732131958,3.077169895172119,7.853243827819824
1771038408300568300,6.326568359375,1.210768222808838,3.3068809509277344,8.059026718139648
1771038408319536600,6.34553662109375,3.579662561416626,3.1250264644622803,7.063612461090088
1771038408338505200,6.364505126953125,5.144568920135498,2.823530673980713,6.9104719161987305
1771038408357473500,6.3834736328125,6.058627128601074,2.5076780319213867,7.039684295654297
1771038408376442000,6.402442138671875,7.101897716522217,2.273181438446045,4.555934429168701
1771038408395410400,6.421410400390625,7.192824840545654,3.273381471633911,2.799602508544922
1771038408414379000,6.44037890625,5.474778175354004,4.034298896789551,2.699103832244873
1771038408433347300,6.459347412109375,3.555734395980835,4.53200626373291,1.3495519161224365
1771038408452315600,6.478315673828125,-0.4450650215148926,5.3216376304626465,0.12921242415905
1771038408471284200,6.4972841796875,-6.32662296295166,7.8628153800964355,1.8089739084243774
1771038408490252500,6.51625244140625,-11.964113235473633,10.533205032348633,4.713860511779785
1771038408509221000,6.53522119140625,-16.88854217529297,12.69153118133545,6.963113784790039
1771038408528189400,6.554189453125,-18.458234786987305,13.313665390014648,6.948757171630859
1771038408547158000,6.573157958984375,-17.242679595947266,13.619946479797363,6.589833736419678
1771038408566126300,6.592126220703125,-14.112868309020996,13.146167755126953,6.159125328063965
1771038408585094700,6.6110947265625,-11.016555786132812,12.337393760681152,5.259424209594727
1771038408604063200,6.630063232421875,-7.269395351409912,10.925628662109375,4.340580463409424
1771038408623031600,6.649031494140625,-3.617947816848755,8.398807525634766,4.508078098297119
1771038408642000100,6.668000244140625,-2.909672260284424,6.4510498046875,5.3216376304626465
1771038408660968400,6.686968505859375,-3.1106693744659424,5.278566837310791,4.54636287689209
1771038408679936800,6.705936767578125,-0.550349235534668,3.3164522647857666,4.120440483093262
1771038408698905300,6.7249052734375,1.679761528968811,1.8616160154342651,3.311666488647461
1771038408717873700,6.743873779296875,2.526820659637451,1.2394821643829346,2.7421748638153076
1771038408736842200,6.76284228515625,1.8951154947280884,0.4019941985607147,0.7226324677467346
1771038408755810600,6.781810546875,2.0673987865448,0.038285162299871445,-0.02392822690308094
1771038408774779000,6.80077880859375,2.6368906497955322,-0.7752745151519775,0.1818545162677765
1771038408793747500,6.81974755859375,2.4263222217559814,-0.7848458290100098,-1.1629117727279663
1771038408812715800,6.8387158203125,1.94297194480896,-1.0767701864242554,-2.5746772289276123
1771038408831684400,6.857684326171875,2.9718856811523438,-1.0097711086273193,-4.192225456237793
1771038408850652700,6.876652587890625,4.9531426429748535,-0.9044869542121887,-4.785645484924316
1771038408869621200,6.895621337890625,7.747959613800049,-0.09571290761232376,-3.3786656856536865
1771038408888589600,6.914589599609375,9.365508079528809,1.1341979503631592,-0.7082754969596863
1771038408907558000,6.933557861328125,11.26062297821045,0.9044869542121887,-0.13878370821475983
1771038408926526500,6.9525263671875,11.59561824798584,1.2490534782409668,-2.2779672145843506
1771038408945494800,6.971494873046875,12.107682228088379,1.7563318014144897,-2.2444677352905273
1771038408964463000,6.990463134765625,11.528619766235352,1.9286150932312012,-0.5886343717575073
1771038408983431700,7.009431640625,11.600403785705566,1.3591232299804688,0.4307080805301666
1771038409002400000,7.02839990234375,13.868800163269043,0.8422735929489136,1.277767300605774
1771038409021368600,7.04736865234375,19.300506591796875,1.3591232299804688,2.1918256282806396
1771038409040337000,7.0663369140625,21.80340003967285,2.6225335597991943,2.550748825073242
1771038409059305200,7.08530517578125,21.573688507080078,3.3882367610931396,1.5074782371520996
1771038409078273800,7.104273681640625,19.46800422668457,2.775674343109131,0.30628129839897156
1771038409097242000,7.1232421875,18.46302032470703,2.8522446155548096,0.4163511395454407
1771038409116210700,7.142210693359375,17.22353744506836,2.6847469806671143,0.35892340540885925
1771038409135179000,7.161178955078125,16.046268463134766,2.3880369663238525,0.2919243574142456
1771038409154147300,7.180147216796875,14.701501846313477,1.9956140518188477,0.04785645380616188
1771038409173116000,7.199115966796875,12.681960105895996,2.8187451362609863,0.7896314859390259
1771038409192084200,7.218084228515625,11.394621849060059,2.857030153274536,0.7992027401924133
1771038409211052500,7.237052490234375,10.671989440917969,3.005385160446167,0.698704183101654
1771038409230021000,7.256021240234375,10.17428207397461,2.823530673980713,0.5982056856155396
1771038409248989400,7.274989501953125,10.313065528869629,1.8711873292922974,-1.0193424224853516
1771038409267957800,7.293957763671875,11.12183952331543,1.6319050788879395,-2.1104695796966553
1771038409286926300,7.31292626953125,12.19382381439209,1.5792629718780518,-2.957528829574585
1771038409305894700,7.331894775390625,11.834900856018066,1.301695466041565,-3.4648072719573975
1771038409324863000,7.350863037109375,10.63370418548584,0.698704183101654,-4.713860511779785
1771038409343831600,7.36983154296875,9.81535816192627,0.43549370765686035,-5.838487148284912
1771038409362799900,7.3887998046875,8.303094863891602,1.3878371715545654,-5.709274768829346
1771038409381768200,7.407768310546875,9.198010444641113,2.359323024749756,-7.020541667938232
1771038409400736800,7.42673681640625,9.236295700073242,3.6323046684265137,-7.17368221282959
1771038409419705000,7.445705078125,6.920042991638184,4.804787635803223,-6.206982135772705
1771038409438673400,7.46467333984375,4.48414945602417,6.546762943267822,-5.962913990020752
1771038409457642000,7.48364208984375,1.1150553226470947,8.102097511291504,-5.570491313934326
1771038409476610300,7.5026103515625,-1.1772687435150146,9.346364974975586,-5.20678186416626
1771038409495578600,7.52157861328125,-2.847458839416504,10.643275260925293,-5.685346603393555
1771038409514547200,7.540547119140625,-5.039284706115723,11.533405303955078,-5.670989513397217
1771038409533515500,7.559515625,-5.498706340789795,12.42832088470459,-4.871787071228027
1771038409552483800,7.57848388671875,-3.689732551574707,12.346964836120605,-4.398007869720459
1771038409571452200,7.5974521484375,-3.2829527854919434,11.432906150817871,-3.7902309894561768
1771038409590420700,7.616420654296875,-3.9050865173339844,10.8969144821167,-2.6608188152313232
1771038409609389000,7.63538916015625,-4.503292083740234,9.590433120727539,-2.6608188152313232
1771038409628357400,7.654357421875,-4.321437835693359,8.24566650390625,-3.2446675300598145
1771038409647325700,7.67332568359375,-3.933800458908081,6.977470874786377,-3.187239646911621
1771038409666294300,7.692294189453125,-3.627519130706787,6.135197162628174,-2.723032236099243
1771038409685262600,7.7112626953125,-3.84765887260437,5.426921844482422,-1.9812572002410889
1771038409704231000,7.73023095703125,-4.225724697113037,5.201996326446533,-1.5792629718780518
1771038409723199500,7.749199462890625,-3.675375461578369,5.120640277862549,-1.4452649354934692
1771038409742167800,7.768167724609375,-2.579462766647339,4.938786029815674,-1.0863415002822876
1771038409761136000,7.78713623046875,-1.5074782371520996,4.675575256347656,-0.7513462901115417
1771038409780104400,7.8061044921875,-0.33499518036842346,4.4650068283081055,-0.5982056856155396
1771038409799073000,7.825072998046875,0.8039883971214294,4.7234320640563965,-1.3830515146255493
1771038409818041300,7.844041259765625,0.9092726111412048,4.579862594604492,-2.7421748638153076
1771038409837009700,7.863009765625,1.153340458869934,4.59421968460083,-3.0963125228881836
1771038409855978000,7.88197802734375,0.6556333899497986,5.3694939613342285,-2.115255117416382
1771038409874946300,7.9009462890625,0.6317051649093628,6.178267955780029,-1.7276179790496826
1771038409893915000,7.919914794921875,0.4833501875400543,6.8482584953308105,-1.397408366203308
1771038409912883200,7.93888330078125,1.1102696657180786,7.719245910644531,-1.2203395366668701
1771038409931851500,7.9578515625,2.043470621109009,8.982656478881836,-2.1343977451324463
1771038409950819800,7.97681982421875,4.000799655914307,9.80100154876709,-3.5270206928253174
1771038409969788200,7.9957880859375,4.4650068283081055,10.021141052246094,-4.2592244148254395
1771038409988756700,8.0147568359375,4.508078098297119,10.231709480285645,-3.507878065109253
1771038410007725000,8.03372509765625,6.096911907196045,10.169496536254883,-3.651447296142578
1771038410026693400,8.052693359375,8.72901725769043,9.623932838439941,-3.775874137878418
1771038410045661700,8.07166162109375,9.978070259094238,9.767501831054688,-2.6321048736572266
1771038410064630300,8.09063037109375,9.116654396057129,9.968499183654785,-0.24885354936122894
1771038410083598600,8.1095986328125,8.21695327758789,9.355937004089355,1.5314065217971802
1771038410102567000,8.12856689453125,6.537191390991211,8.628518104553223,1.0336993932724
1771038410121535200,8.14753515625,4.627718925476074,7.743174076080322,-0.35413774847984314
1771038410140503600,8.166503662109376,4.742574691772461,6.853044033050537,-2.5220351219177246
1771038410159471900,8.185471923828125,5.560919761657715,5.37906551361084,-3.6705899238586426
1771038410178440200,8.204440185546876,6.355337142944336,4.666004180908203,-3.4887354373931885
1771038410197408500,8.223408447265625,7.283751964569092,4.321437835693359,-2.9958138465881348
1771038410216377000,8.242377197265625,7.369893550872803,3.3690943717956543,-3.6083765029907227
1771038410235345400,8.261345458984374,8.336593627929688,1.306481122970581,-4.4650068283081055
1771038410254313700,8.280313720703125,9.011369705200195,0.2105683982372284,-4.8574299812316895
1771038410273282000,8.299281982421874,9.77707290649414,-0.5359922647476196,-3.8572301864624023
1771038410292250400,8.31825048828125,8.920442581176758,-0.9236295223236084,-1.9286150932312012
1771038410311218700,8.33721875,8.4562349319458,-1.6366907358169556,-2.172683000564575
1771038410330187000,8.35618701171875,8.001599311828613,-2.407179594039917,-2.3401806354522705
1771038410349155300,8.3751552734375,6.92482852935791,-2.957528829574585,-2.282752752304077
1771038410368123600,8.39412353515625,5.091926574707031,-2.9623143672943115,-2.100898265838623
1771038410387092200,8.41309228515625,4.130012035369873,-3.2303106784820557,-1.9621145725250244
1771038410406060500,8.432060546875,3.799802303314209,-3.7950167655944824,-2.3162522315979004
1771038410425028900,8.45102880859375,4.153940200805664,-3.900300979614258,-3.2781670093536377
1771038410443997200,8.4699970703125,6.929614543914795,-3.589233875274658,-5.3934221267700195
1771038410462965500,8.488965576171875,10.557133674621582,-3.5222349166870117,-6.652047157287598
1771038410481933800,8.507933837890626,14.380864143371582,-3.94815731048584,-6.570691108703613
1771038410500902100,8.526902099609375,16.481761932373047,-3.1585259437561035,-5.670989513397217
1771038410519870500,8.545870361328125,16.400405883789062,-2.0243279933929443,-5.20678186416626
1771038410538838800,8.5648388671875,15.54377555847168,-2.5124638080596924,-4.642076015472412
1771038410557807000,8.58380712890625,13.744373321533203,-3.5844483375549316,-3.326023578643799
1771038410576775400,8.602775390625,10.643275260925293,-3.90987229347229,-3.091526746749878
1771038410595743700,8.62174365234375,9.312865257263184,-4.4410786628723145,-5.532206058502197
1771038410614712000,8.640712158203126,8.915657043457031,-4.871787071228027,-8.800801277160645
1771038410633680400,8.659680419921875,9.997213363647461,-5.015356063842773,-10.839486122131348
1771038410652648700,8.678648681640626,10.782058715820312,-4.7234320640563965,-10.52363395690918
1771038410671617000,8.697616943359375,10.059426307678223,-4.431507587432861,-9.7005033493042
1771038410690585300,8.71658544921875,8.834300994873047,-4.07258415222168,-8.934800148010254
1771038410709553700,8.7355537109375,7.776673793792725,-4.019941806793213,-8.489734649658203
1771038410728522000,8.75452197265625,7.264609336853027,-3.751945972442627,-7.953742504119873
1771038410747490300,8.773490234375,6.4510498046875,-3.493520975112915,-7.350750923156738
1771038410766458600,8.792458740234375,6.005984783172607,-3.689732551574707,-6.97268533706665
1771038410785427000,8.811427001953126,5.72841739654541,-3.436093330383301,-6.690331935882568
1771038410804395300,8.830395263671875,5.91505765914917,-3.16331148147583,-6.403193473815918
1771038410823363300,8.84936328125,5.862415313720703,-2.737389087677002,-5.9437713623046875
1771038410842332000,8.868331787109375,5.972485542297363,-2.1343977451324463,-5.450850009918213
1771038410861300000,8.887300048828125,7.164111137390137,-2.076970100402832,-5.355136871337891
1771038410880268300,8.906268310546874,8.8438720703125,-2.196611166000366,-5.560919761657715
1771038410899236600,8.925236572265625,10.614561080932617,-1.703689694404602,-5.651846885681152
1771038410918205000,8.944204833984376,12.145967483520508,-1.4404792785644531,-6.087340831756592
1771038410937173200,8.96317333984375,15.333207130432129,-1.8089739084243774,-7.221538543701172
1771038410956141600,8.9821416015625,17.941383361816406,-1.1341979503631592,-7.159325122833252
1771038410975110000,9.00110986328125,19.582860946655273,-0.8327022790908813,-7.408178806304932
1771038410994078200,9.020078125,20.003997802734375,-3.22552490234375,-8.566305160522461
1771038411013046500,9.039046630859374,19.262222290039062,-7.551748275756836,-10.98305606842041
1771038411032014800,9.058014892578125,19.19043731689453,-11.0835542678833,-13.691731452941895
1771038411050983000,9.07698291015625,18.266807556152344,-12.485748291015625,-15.05564022064209
1771038411069951200,9.095951171875,16.108482360839844,-12.806386947631836,-16.256837844848633
1771038411088919600,9.11491943359375,12.815958023071289,-13.227523803710938,-17.25225067138672
1771038411107887900,9.133887939453125,10.29870891571045,-13.12702465057373,-17.376678466796875
1771038411126856200,9.152856201171875,8.719446182250977,-10.327422142028809,-16.850257873535156
1771038411145824500,9.171824462890624,8.398807525634766,-7.613961696624756,-15.290136337280273
1771038411164792600,9.19079248046875,8.149953842163086,-4.335794448852539,-12.921242713928223
1771038411183761000,9.209760986328124,8.049455642700195,-1.459621787071228,-11.365907669067383
1771038411202729200,9.228729248046875,8.164310455322266,0.45942193269729614,-9.767501831054688
1771038411221697500,9.247697509765626,7.240681171417236,0.8327022790908813,-7.6666035652160645
1771038411240665900,9.266665771484375,5.489135265350342,0.22013968229293823,-5.948556900024414
1771038411259634200,9.28563427734375,4.34536600112915,-0.5982056856155396,-5.134997367858887
1771038411278602200,9.304602294921875,3.6131622791290283,-1.3399807214736938,-4.651647090911865
1771038411297570600,9.323570556640625,2.7565317153930664,-1.4739787578582764,-4.1970109939575195
1771038411316539000,9.342538818359374,1.7132610082626343,-1.789831280708313,-4.618147850036621
1771038411335507200,9.361507080078125,1.4069796800613403,-2.258824586868286,-5.881557941436768
1771038411354475500,9.3804755859375,0.9619147181510925,-1.7419748306274414,-4.8574299812316895
1771038411373443600,9.399443603515625,-0.5312066078186035,0.23449662327766418,-4.086941242218018
1771038411392412000,9.418411865234376,0.11006984114646912,3.737588882446289,-4.043870449066162
1771038411411380200,9.437380126953125,3.5844483375549316,6.9344000816345215,-3.0628130435943604
1771038411430348500,9.4563486328125,3.7471601963043213,6.321837425231934,-3.895515203475952
1771038411449316600,9.475316650390624,2.287538528442383,2.837887763977051,-1.8376877307891846
1771038411468285000,9.494284912109375,-0.5599204897880554,3.0580272674560547,1.2538390159606934
1771038411487253200,9.513253173828126,-3.541377544403076,1.5649060010910034,1.435693621635437
1771038411506221600,9.5322216796875,-4.144368648529053,1.0097711086273193,-1.7754744291305542
1771038411525189600,9.551189697265626,-3.005385160446167,0.8135597109794617,-6.216553211212158
1771038411544158000,9.570157958984375,-2.2205393314361572,-0.2153540402650833,-9.600004196166992
1771038411563126300,9.589126220703125,-1.057627558708191,-1.2442678213119507,-10.911271095275879
1771038411582094300,9.60809423828125,1.6271194219589233,-1.679761528968811,-10.336994171142578
1771038411610546700,9.636546630859375,5.3694939613342285,-1.8903298377990723,-7.81974458694458
1771038411629515000,9.655514892578125,7.676175117492676,-1.34476637840271,-5.714060306549072
1771038411648483300,9.6744833984375,10.782058715820312,-0.08614161610603333,-3.6849467754364014
1771038411667451400,9.693451416015625,14.337793350219727,1.852044701576233,-3.22552490234375
1771038411686419700,9.712419677734376,17.697317123413086,4.297509670257568,-1.2921242713928223
1771038411705388000,9.731387939453125,17.3814640045166,6.096911907196045,2.555534601211548
1771038411724356000,9.750356201171876,13.9453706741333,4.07258415222168,3.7328033447265625
1771038411743324400,9.769324462890625,10.341779708862305,-0.2392822653055191,1.6893328428268433
1771038411762292700,9.788292724609375,8.590232849121094,-3.067598581314087,-3.0484559535980225
1771038411781260800,9.8072607421875,9.652647018432617,-3.713660717010498,-8.537590980529785
1771038411800229000,9.82622900390625,8.810373306274414,-2.053041934967041,-9.437292098999023
1771038411819197400,9.845197509765624,8.011170387268066,-1.8089739084243774,-8.24566650390625
1771038411838165500,9.86416552734375,9.77707290649414,-2.076970100402832,-6.307480335235596
1771038411857133800,9.8831337890625,9.686145782470703,-1.3878371715545654,-4.398007869720459
1771038411876102100,9.90210205078125,9.485149383544922,-1.9046868085861206,-2.675175666809082
1771038411895070200,9.9210703125,8.858229637145996,-2.1918256282806396,-1.6701902151107788
1771038411914038500,9.94003857421875,9.858428955078125,-3.2063822746276855,-2.589034080505371
1771038411933006600,9.959006591796875,11.992827415466309,-4.1730828285217285,-3.809373617172241
1771038411951975000,9.977974853515626,13.337593078613281,-4.07258415222168,-3.005385160446167
1771038411970943000,9.99694287109375,15.40499210357666,-5.4173502922058105,-2.5459632873535156
1771038411989911300,10.015911376953126,17.984455108642578,-7.992027759552002,-3.751945972442627
1771038412008879600,10.034879638671875,20.72662925720215,-9.34157943725586,-6.178267955780029
1771038412027847700,10.05384765625,24.775285720825195,-8.685946464538574,-11.365907669067383
1771038412046816000,10.07281591796875,30.058637619018555,-6.38883638381958,-15.883556365966797
1771038412065784000,10.0917841796875,26.4598331451416,-5.986842155456543,-17.481962203979492
1771038412084752400,10.11075244140625,17.649459838867188,-5.900700569152832,-15.787843704223633
1771038412103720400,10.129720458984375,10.480563163757324,-5.364708423614502,-14.749359130859375
1771038412122688800,10.148688720703126,6.4510498046875,-3.273381471633911,-13.854443550109863
1771038412141657000,10.167656982421875,6.096911907196045,-1.2729816436767578,-12.461820602416992
1771038412160625200,10.186625244140625,6.666403770446777,-0.06699903309345245,-10.638489723205566
1771038412179593500,10.205593505859374,6.666403770446777,1.2346965074539185,-9.609575271606445
1771038412198561500,10.2245615234375,6.7621169090271,2.1439690589904785,-9.556933403015137
1771038412217529900,10.24352978515625,7.087540626525879,2.7086751461029053,-9.997213363647461
1771038412236498000,10.262497802734375,7.369893550872803,2.282752752304077,-10.38485050201416
1771038412255466200,10.28146630859375,6.9344000816345215,1.6319050788879395,-10.327422142028809
1771038412274434300,10.300434326171874,6.364908218383789,2.3641088008880615,-9.432506561279297
1771038412293402600,10.319402587890625,7.168896675109863,2.273181438446045,-8.274380683898926
1771038412312370700,10.33837060546875,7.020541667938232,2.3018953800201416,-6.364908218383789
1771038412331339000,10.357339111328125,5.685346603393555,2.7182464599609375,-3.421736478805542
1771038412350307000,10.37630712890625,4.756931304931641,3.8763725757598877,-1.306481122970581
1771038412369275100,10.395275146484375,3.9672999382019043,4.560719966888428,-0.20578274130821228
1771038412388243500,10.414243408203125,3.239881753921509,5.168497085571289,0.727418065071106
1771038412407211800,10.433211669921874,2.5124638080596924,4.761716842651367,0.5455635786056519
1771038412426179800,10.452179931640625,1.919043779373169,4.192225456237793,-1.454836130142212
1771038412445148000,10.47114794921875,1.7850457429885864,3.153740167617798,-3.2590243816375732
1771038412464116200,10.4901162109375,1.2011969089508057,2.7900311946868896,-3.1345977783203125
1771038412483084300,10.509084228515626,1.4213366508483887,2.737389087677002,-2.1439690589904785
1771038412502052600,10.528052490234375,2.9383862018585205,2.7565317153930664,-1.0911271572113037
1771038412521020700,10.547020751953125,4.130012035369873,2.6847469806671143,0.363709032535553
1771038412539989000,10.565989013671874,4.618147850036621,2.981456995010376,1.4739787578582764
1771038412558957000,10.58495703125,6.92482852935791,3.263810157775879,1.4835500717163086
1771038412577925000,10.603925048828126,9.595218658447266,3.565305709838867,1.8233308792114258
1771038412596893400,10.6228935546875,9.930213928222656,3.2063822746276855,2.837887763977051
1771038412615861500,10.641861572265626,9.528220176696777,2.1774685382843018,2.651247501373291
1771038412634829800,10.660829833984375,8.95394229888916,0.8566305041313171,2.258824586868286
1771038412653798000,10.6797978515625,7.317251682281494,-0.15314064919948578,2.0243279933929443
1771038412672766000,10.698765869140624,5.953342914581299,0.038285162299871445,0.7369893789291382
1771038412691734300,10.717734375,8.111668586730957,0.914058268070221,-0.8901300430297852
1771038412710702300,10.736702392578126,9.772287368774414,1.3782658576965332,-1.9046868085861206
1771038412729670400,10.75567041015625,10.394421577453613,1.7180466651916504,-2.196611166000366
1771038412748638700,10.774638671875,9.796216011047363,1.7132610082626343,-2.287538528442383
1771038412767606800,10.793606689453124,8.427521705627441,1.8903298377990723,-4.268795490264893
1771038412786575000,10.8125751953125,9.475577354431152,1.3208380937576294,-5.450850009918213
1771038412805543200,10.831543212890624,10.112068176269531,1.9046868085861206,-3.94815731048584
1771038412824511200,10.85051123046875,12.117254257202148,3.996013879776001,-2.2779672145843506
1771038412843479300,10.869479248046876,14.82114315032959,6.192625045776367,-3.431307554244995
1771038412862447600,10.888447509765625,16.060625076293945,6.206982135772705,-7.412964344024658
1771038412881415700,10.907415771484375,16.41954803466797,6.20219612121582,-10.202995300292969
1771038412900384000,10.926384033203124,14.816357612609863,4.823930263519287,-10.02592658996582
1771038412919352000,10.94535205078125,12.160325050354004,3.675375461578369,-8.135597229003906
1771038412938320100,10.964320068359376,10.370492935180664,2.699103832244873,-6.790830612182617
1771038412957288400,10.983288330078125,8.96829891204834,2.1774685382843018,-6.608976364135742
1771038412976256500,11.002256591796876,7.690532207489014,1.6558332443237305,-6.704689025878906
1771038412995224600,11.021224609375,5.804987907409668,1.1485549211502075,-6.025127410888672
1771038413014192600,11.040192626953125,2.9001009464263916,0.2967100143432617,-4.579862594604492
1771038413033161000,11.059160888671874,0.08135596662759781,-0.8949156403541565,-3.7184464931488037
1771038413052129000,11.07812890625,-2.0817556381225586,-1.5840486288070679,-3.4983067512512207
1771038413071097000,11.09709716796875,-2.1678972244262695,-2.014756679534912,-3.4169507026672363
1771038413090065400,11.1160654296875,-0.8374879360198975,-1.7754744291305542,-3.407379388809204
1771038413109033500,11.135033447265625,2.3880369663238525,-1.210768222808838,-4.201796531677246
1771038413128001500,11.15400146484375,7.240681171417236,-1.6271194219589233,-5.580062389373779
1771038413146969600,11.172969482421875,12.705887794494629,-1.9334007501602173,-7.087540626525879
1771038413165938000,11.19193798828125,18.175880432128906,-2.4837498664855957,-7.781459331512451
1771038413184906000,11.210906005859375,21.549760818481445,-1.6510475873947144,-7.9250288009643555
1771038413203874000,11.2298740234375,20.425134658813477,-1.9142581224441528,-7.293323516845703
1771038413222842000,11.248842041015624,16.17548179626465,-3.8524444103240967,-6.623332977294922
1771038413241810200,11.26781005859375,10.313065528869629,-5.498706340789795,-6.613761901855469
1771038413260778500,11.286778564453124,5.426921844482422,-5.9916276931762695,-7.81974458694458
1771038413279746600,11.30574658203125,2.4646072387695312,-4.527220249176025,-8.638090133666992
1771038413298714600,11.324714599609376,1.4069796800613403,-2.4981069564819336,-8.963513374328613
1771038413317682700,11.3436826171875,3.2590243816375732,-0.727418065071106,-9.269794464111328
1771038413336650800,11.362650634765625,5.962913990020752,0.22492532432079315,-10.06421184539795
1771038413355619000,11.381619140625,8.997013092041016,0.5790630578994751,-10.427921295166016
1771038413374587100,11.400587158203125,11.791830062866211,-1.0959128141403198,-12.720245361328125
1771038413393555200,11.41955517578125,14.055439949035645,-2.5746772289276123,-15.802200317382812
1771038413412523300,11.438523193359375,15.457633972167969,-2.8283164501190186,-17.185253143310547
1771038413431491300,11.4574912109375,14.08415412902832,-3.6993038654327393,-14.007583618164062
1771038413450459600,11.476459716796874,11.84447193145752,-2.8522446155548096,-10.743773460388184
1771038413469427700,11.495427734375,10.01156997680664,-1.9573289155960083,-8.858229637145996
1771038413488395800,11.514395751953124,7.920242786407471,-0.7752745151519775,-7.700103282928467
1771038413507363800,11.53336376953125,5.560919761657715,0.24406790733337402,-6.1399827003479
1771038413526332000,11.552331787109376,2.1296122074127197,1.2681959867477417,-4.742574691772461
1771038413545300000,11.571300048828125,0.5072783827781677,2.612962245941162,-4.780859470367432
1771038413564268300,11.590268310546875,0.6747759580612183,3.445664644241333,-6.441478729248047
1771038413583236400,11.609236328125,1.5792629718780518,3.603590965270996,-7.810173034667969
1771038413602204400,11.628204345703125,1.2634103298187256,2.775674343109131,-7.221538543701172
1771038413621172500,11.64717236328125,-0.16749759018421173,2.60339093208313,-5.307280540466309
1771038413640140500,11.666140625,-1.1676974296569824,2.68953275680542,-3.0340991020202637
1771038413659108600,11.685108642578125,-2.014756679534912,2.9766714572906494,-1.9669002294540405
1771038413678076700,11.70407666015625,-2.770888566970825,2.847458839416504,-1.8041882514953613
1771038413697044700,11.723044677734375,-1.923829436302185,2.809173822402954,-1.28255295753479
1771038413716012800,11.7420126953125,0.3732803463935852,2.3641088008880615,-1.3782658576965332
1771038413734980900,11.76098095703125,1.9860427379608154,2.7565317153930664,-1.0049854516983032
1771038413753949000,11.779948974609376,3.627519130706787,3.067598581314087,-1.4883357286453247
1771038413772917200,11.798917236328125,4.34536600112915,3.014956474304199,-1.301695466041565
1771038413791885300,11.81788525390625,3.775874137878418,2.8283164501190186,-1.28255295753479
1771038413810853400,11.836853271484374,3.5461630821228027,2.8283164501190186,-1.6606189012527466
1771038413829821400,11.855821533203125,3.775874137878418,2.1343977451324463,-2.1200408935546875
1771038413848789500,11.87478955078125,4.278367042541504,1.1772687435150146,-3.0005996227264404
1771038413867757600,11.893757568359375,5.091926574707031,0.9044869542121887,-5.2354960441589355
1771038413886725600,11.9127255859375,6.795616149902344,-0.009571290574967861,-7.460821151733398
1771038413905693700,11.931693603515624,8.427521705627441,-1.0719845294952393,-6.068198204040527
1771038413924661800,11.950661865234375,8.571090698242188,-0.7657032608985901,-3.531806230545044
1771038413943629800,11.9696298828125,10.078569412231445,-0.727418065071106,-3.7471601963043213
1771038413962598000,11.988597900390625,13.605589866638184,-1.3351950645446777,-5.355136871337891
1771038413981566000,12.00756591796875,15.433706283569336,-1.1868400573730469,-4.369294166564941
1771038414000534000,12.026533935546874,15.481562614440918,-1.3591232299804688,-3.16331148147583
1771038414019502000,12.045502197265625,13.864014625549316,-2.201396942138672,-2.6368906497955322
1771038414038470100,12.06447021484375,11.624332427978516,-3.345165967941284,-2.746960401535034
1771038414057438200,12.083438232421875,10.48534870147705,-4.158725738525391,-3.838087558746338
1771038414076406300,12.10240625,10.518848419189453,-4.249652862548828,-4.790431022644043
1771038414095374300,12.121374267578124,10.671989440917969,-3.5270206928253174,-5.254638671875
1771038414114342400,12.14034228515625,10.724631309509277,-2.531606435775757,-5.106283664703369
1771038414133310500,12.159310546875,10.289137840270996,-2.100898265838623,-4.59421968460083
1771038414152278500,12.178278564453125,9.30329418182373,-1.919043779373169,-4.436293125152588
1771038414171246300,12.197246337890626,8.00638484954834,-1.3782658576965332,-3.9385859966278076
1771038414190214400,12.21621435546875,7.350750923156738,-1.4787644147872925,-3.94815731048584
1771038414209182500,12.235182373046875,7.326822757720947,-1.923829436302185,-3.4265220165252686
1771038414228150500,12.254150634765624,7.594819068908691,-2.2683959007263184,-3.1920254230499268
1771038414247118600,12.27311865234375,9.66221809387207,-3.1728827953338623,-3.211168050765991
1771038414266086700,12.292086669921876,11.973684310913086,-3.761517286300659,-3.2350962162017822
1771038414285054700,12.3110546875,14.653645515441895,-2.9862427711486816,-1.435693621635437
1771038414304022800,12.330022705078125,16.44826316833496,-1.277767300605774,0.1579262912273407
1771038414322990800,12.348990966796874,17.697317123413086,-0.11964113265275955,0.04307080805301666
1771038414341959000,12.367958984375,18.582660675048828,-0.6508477330207825,-0.5120640397071838
1771038414360927000,12.386927001953126,18.458234786987305,-4.144368648529053,-1.4979069232940674
1771038414379894800,12.405894775390625,17.9700984954834,-7.858029365539551,-2.885744094848633
1771038414398862800,12.42486279296875,19.276578903198242,-10.255638122558594,-5.173282623291016
1771038414417831000,12.443830810546874,19.793428421020508,-9.829715728759766,-6.254838466644287
1771038414436799000,12.462799072265625,17.99402618408203,-7.8628153800964355,-5.72841739654541
1771038414465251000,12.4912509765625,16.984254837036133,-8.958727836608887,-6.144768714904785
1771038414484219000,12.510218994140626,15.347564697265625,-8.906085968017578,-6.106483459472656
1771038414503187000,12.52918701171875,12.457035064697266,-6.049055576324463,-4.862215518951416
1771038414522155000,12.548155029296876,11.475976943969727,-3.9433717727661133,-2.3258235454559326
1771038414541123000,12.567123046875,11.399407386779785,-2.091326951980591,0
1771038414560091100,12.586091064453125,10.600204467773438,-0.7322037220001221,1.454836130142212
1771038414579059000,12.605058837890626,10.097711563110352,-0.5838487148284912,0.9619147181510925
1771038414598027000,12.624027099609375,8.427521705627441,-0.7992027401924133,-0.2871387302875519
1771038414616995000,12.6429951171875,5.4556355476379395,0.5790630578994751,-0.10049854964017868
1771038414635963100,12.661963134765625,4.244867324829102,1.2059825658798218,-1.301695466041565
1771038414654931200,12.68093115234375,3.2159535884857178,0.17228323221206665,-1.4021940231323242
1771038414673899000,12.69989892578125,0.8231309652328491,-0.6891329288482666,-0.4163511395454407
1771038414692867000,12.7188671875,0.02871387079358101,-1.0480563640594482,0.1818545162677765
1771038414711835100,12.737835205078126,0.4163511395454407,-0.31106695532798767,0.9667003750801086
1771038414730803200,12.75680322265625,1.6845471858978271,0.7178468108177185,1.129412293434143
1771038414749771000,12.77577099609375,2.3736801147460938,1.4739787578582764,0.3158525824546814
1771038414768739000,12.794739013671874,2.770888566970825,1.430907964706421,0.5312066078186035
1771038414787707100,12.81370703125,3.675375461578369,1.679761528968811,1.5553346872329712
1771038414806675000,12.832675048828126,3.9050865173339844,2.1200408935546875,3.3786656856536865
1771038414825643000,12.85164306640625,4.838287353515625,2.321038007736206,4.575077056884766
1771038414844611000,12.870611083984375,5.197210788726807,2.421536445617676,4.6372904777526855
1771038414863579100,12.8895791015625,5.627918720245361,1.545763373374939,2.612962245941162
1771038414882547000,12.908546875,5.8337016105651855,0.6317051649093628,2.589034080505371
1771038414901515000,12.927514892578126,5.221138954162598,1.2921242713928223,5.00578498840332
1771038414920483000,12.946483154296875,8.240880966186523,2.115255117416382,6.690331935882568
1771038414939451000,12.965450927734375,11.011770248413086,2.861815929412842,8.001599311828613
1771038414958419000,12.9844189453125,12.241681098937988,3.6227335929870605,8.872586250305176
1771038414977387000,13.003386962890625,13.213166236877441,4.01037073135376,9.53779125213623
1771038414996354800,13.022354736328126,11.088339805603027,4.565505504608154,9.370293617248535
1771038415015323000,13.041322998046875,7.183253765106201,4.785645484924316,8.374878883361816
1771038415034291000,13.060291015625,6.733402729034424,4.168296813964844,7.020541667938232
1771038415053258800,13.0792587890625,8.140382766723633,4.431507587432861,5.618347644805908
1771038415072226800,13.098226806640625,8.475378036499023,5.058426856994629,5.493920803070068
1771038415091194600,13.117194580078126,8.451449394226074,4.852644443511963,5.776273727416992
1771038415110162700,13.13616259765625,8.097311973571777,3.6705899238586426,4.680361270904541
1771038415129130800,13.155130859375,5.781059741973877,2.746960401535034,3.814159393310547
1771038415148098600,13.1740986328125,4.106083869934082,2.531606435775757,3.469592809677124
1771038415167066600,13.193066650390625,4.206582069396973,2.344966173171997,4.096512317657471
1771038415186034400,13.212034423828126,6.192625045776367,2.675175666809082,4.718646049499512
1771038415205002500,13.23100244140625,6.819544315338135,2.6368906497955322,4.503292083740234
1771038415223970600,13.249970458984375,5.929414749145508,2.306680917739868,5.072783946990967
1771038415242938400,13.2689384765625,4.359723091125488,2.187039852142334,4.3788652420043945
1771038415261906400,13.287906494140625,3.8524444103240967,2.5220351219177246,3.6993038654327393
1771038415280874200,13.306874267578126,2.66560435295105,1.8999011516571045,2.7086751461029053
1771038415299842300,13.32584228515625,1.7994025945663452,0.8901300430297852,2.3306093215942383
1771038415318810000,13.34481005859375,2.478964328765869,1.7994025945663452,3.3403804302215576
1771038415337778200,13.363778076171876,5.139782905578613,3.761517286300659,5.7858452796936035
1771038415356746000,13.38274609375,8.48016357421875,5.632704734802246,7.872386455535889
1771038415375714000,13.401714111328126,9.757930755615234,5.551348686218262,8.264809608459473
1771038415394681900,13.420681884765624,8.02074146270752,4.2831525802612305,7.211967468261719
1771038415413650000,13.43964990234375,5.335994720458984,4.039084434509277,6.9583282470703125
1771038415432617700,13.45861767578125,4.766502857208252,4.2209391593933105,7.226324558258057
1771038415451585800,13.477585693359375,7.283751964569092,4.618147850036621,7.566105365753174
1771038415470553900,13.496553955078125,12.174681663513184,5.2354960441589355,7.70967435836792
1771038415489521700,13.515521728515624,14.524433135986328,5.982056617736816,8.322237014770508
1771038415508489500,13.534489501953125,13.548161506652832,4.177868366241455,7.135396957397461
1771038415527457500,13.55345751953125,12.361321449279785,3.7471601963043213,6.3361945152282715
1771038415546425300,13.57242529296875,13.792229652404785,4.823930263519287,5.374279499053955
1771038415565393400,13.591393310546875,15.783058166503906,5.3694939613342285,4.1970109939575195
1771038415584361200,13.610361328125,15.136996269226074,4.742574691772461,3.297309637069702
1771038415603329300,13.629329345703125,14.299508094787598,4.685146808624268,3.0340991020202637
1771038415622297000,13.648297119140626,14.691930770874023,5.465207099914551,3.957728624343872
1771038415641265200,13.66726513671875,12.997812271118164,5.570491313934326,5.13021183013916
1771038415660233000,13.68623291015625,11.35633659362793,5.508277893066406,5.532206058502197
1771038415679201000,13.705200927734374,10.102497100830078,4.709074974060059,5.015356063842773
1771038415698168800,13.7241689453125,9.56650447845459,4.527220249176025,4.780859470367432
1771038415717136600,13.74313671875,9.628718376159668,3.8333017826080322,3.996013879776001
1771038415736104700,13.762104736328125,8.595019340515137,3.651447296142578,3.761517286300659
1771038415755072500,13.781072509765625,7.685746192932129,3.9672999382019043,3.1824541091918945
1771038415774040600,13.80004052734375,7.255038261413574,3.9625144004821777,3.0245277881622314
1771038415793008400,13.81900830078125,7.953742504119873,3.6705899238586426,2.6368906497955322
1771038415811976400,13.8379765625,8.767302513122559,3.359523057937622,2.723032236099243
1771038415830944300,13.8569443359375,8.346165657043457,3.321237802505493,2.2779672145843506
1771038415849912000,13.875912109375,7.81974458694458,3.579662561416626,2.053041934967041
1771038415868880100,13.894880126953124,7.814958572387695,4.297509670257568,1.794616937637329
1771038415887848000,13.913847900390625,7.762316703796387,4.575077056884766,1.7324036359786987
1771038415906815700,13.932815673828125,7.29810905456543,4.488935470581055,1.5649060010910034
1771038415925783800,13.95178369140625,6.900900363922119,4.661218643188477,1.0959128141403198
1771038415944751600,13.970751708984375,6.561119556427002,5.948556900024414,1.3304094076156616
1771038415963719700,13.9897197265625,6.8004021644592285,6.781259536743164,1.8903298377990723
1771038415982687500,14.0086875,6.57547664642334,7.283751964569092,2.014756679534912
1771038416001655300,14.0276552734375,6.675975322723389,7.805387496948242,2.335394859313965
1771038416020623000,14.046623046875,7.010970115661621,8.585447311401367,2.7565317153930664
1771038416039591200,14.065591064453125,6.8004021644592285,9.91107177734375,3.22552490234375
1771038416058559000,14.08455908203125,6.795616149902344,10.332208633422852,3.239881753921509
1771038416077527000,14.103527099609375,7.015756130218506,9.791430473327637,3.139383316040039
1771038416096494800,14.122494873046875,7.264609336853027,9.432506561279297,3.249453067779541
1771038416115462700,14.141462646484374,5.8097734451293945,9.628718376159668,4.460221290588379
1771038416134430500,14.160430419921875,3.9385859966278076,9.528220176696777,5.647061347961426
1771038416153398500,14.1793984375,3.2350962162017822,8.97787094116211,6.0538411140441895
1771038416172366300,14.198366455078125,3.5988051891326904,7.9728851318359375,5.857629776000977
1771038416191334100,14.217334228515625,4.029513359069824,7.0923261642456055,5.814558982849121
1771038416210302000,14.236302001953124,3.22552490234375,6.3840508460998535,6.029912948608398
1771038416229270000,14.25527001953125,3.3164522647857666,5.752345561981201,5.867201328277588
1771038416248237800,14.27423779296875,3.2303106784820557,5.149354457855225,5.402993679046631
1771038416267205600,14.29320556640625,2.7421748638153076,4.460221290588379,4.972285270690918
1771038416286173400,14.31217333984375,1.6175481081008911,3.5222349166870117,4.254438877105713
1771038416305141500,14.3311416015625,0.5982056856155396,2.6703901290893555,3.4025938510894775
1771038416324109300,14.350109375,-0.349352091550827,2.526820659637451,2.9958138465881348
1771038416343077000,14.3690771484375,-0.009571290574967861,2.335394859313965,3.067598581314087
1771038416362045000,14.388044921875,0.8709874153137207,2.526820659637451,3.1585259437561035
1771038416381012700,14.4070126953125,1.8089739084243774,2.799602508544922,3.445664644241333
1771038416399980800,14.425980712890626,1.5361921787261963,2.785245656967163,3.665804386138916
1771038416418948600,14.444948486328125,1.6366907358169556,2.6560330390930176,3.9433717727661133
1771038416437916400,14.46391650390625,1.7180466651916504,2.4885356426239014,3.775874137878418
1771038416456884200,14.48288427734375,1.550549030303955,2.421536445617676,2.837887763977051
1771038416475852000,14.50185205078125,1.153340458869934,2.885744094848633,2.445464849472046
1771038416494820000,14.520820068359376,0.8805587291717529,2.4598217010498047,3.421736478805542
1771038416513788000,14.539787841796874,-0.14835500717163086,2.579462766647339,4.910071849822998
1771038416532755700,14.558755615234375,-0.5455635786056519,3.6083765029907227,5.862415313720703
1771038416551723500,14.5777236328125,-0.20578274130821228,4.737788677215576,6.522834300994873
1771038416570691300,14.59669140625,0.6556333899497986,6.446264266967773,7.188039302825928
1771038416589659100,14.6156591796875,1.770688772201538,6.853044033050537,8.556734085083008
1771038416608627200,14.634627197265624,1.8424733877182007,7.747959613800049,10.475777626037598
1771038416627595000,14.653594970703125,1.5074782371520996,8.709874153137207,11.552547454833984
1771038416646562800,14.672562744140626,2.0673987865448,8.25523853302002,10.810772895812988
1771038416665530600,14.691530517578125,2.50289249420166,8.21695327758789,10.15035343170166
1771038416684498400,14.71049853515625,2.6943182945251465,7.9728851318359375,10.01156997680664
1771038416703466200,14.72946630859375,3.8285162448883057,7.618747234344482,9.418149948120117
1771038416722434000,14.74843408203125,5.551348686218262,7.70967435836792,8.394021987915039
1771038416741401900,14.76740185546875,5.66620397567749,7.872386455535889,7.800601959228516
1771038416760369700,14.78636962890625,5.302495002746582,6.3601226806640625,7.216753005981445
1771038416779337500,14.80533740234375,5.134997367858887,4.972285270690918,6.144768714904785
1771038416798305300,14.82430517578125,5.2737812995910645,4.709074974060059,5.747560024261475
1771038416817273000,14.843273193359375,5.661418437957764,4.790431022644043,5.446064472198486
1771038416836241200,14.8622412109375,5.709274768829346,5.058426856994629,5.3312087059021
1771038416855209000,14.881208984375,5.288137912750244,4.618147850036621,4.800002098083496
1771038416874176800,14.9001767578125,4.800002098083496,4.187439441680908,4.666004180908203
1771038416893144600,14.91914453125,3.115455150604248,4.130012035369873,5.240281581878662
1771038416912112400,14.9381123046875,3.1920254230499268,4.000799655914307,5.221138954162598
1771038416931080200,14.957080078125,4.986642360687256,3.9385859966278076,4.374079704284668
1771038416950048000,14.976048095703124,6.656832695007324,5.278566837310791,4.058227062225342
1771038416969015800,14.995015869140625,7.657032489776611,6.120840549468994,4.752145767211914
1771038416987983600,15.013983642578125,7.89631462097168,6.192625045776367,4.900500774383545
1771038417006951400,15.032951416015624,7.786244869232178,5.97727108001709,4.565505504608154
1771038417025919000,15.0519189453125,7.8819580078125,6.173482418060303,2.5076780319213867
1771038417044887000,15.070886962890626,7.77188777923584,7.5086774826049805,0.6939185857772827
1771038417063854800,15.089854736328125,6.585047721862793,10.279565811157227,2.5220351219177246
1771038417082822700,15.10882275390625,4.761716842651367,12.299108505249023,3.895515203475952
1771038417101790200,15.127790283203124,5.948556900024414,12.509676933288574,1.2203395366668701
1771038417120758000,15.146758056640625,6.929614543914795,13.85922908782959,1.6701902151107788
1771038417139725800,15.165725830078125,6.4941205978393555,14.423934936523438,3.6849467754364014
1771038417158693600,15.184693603515624,8.197810173034668,13.284951210021973,3.5748770236968994
1771038417177661400,15.203661376953125,6.4319071769714355,12.533604621887207,3.7423746585845947
1771038417196629200,15.222629150390626,5.546562671661377,11.992827415466309,3.531806230545044
1771038417215597000,15.24159716796875,5.465207099914551,11.552547454833984,3.1345977783203125
1771038417234564900,15.26056494140625,5.900700569152832,10.939985275268555,2.0099709033966064
1771038417253532700,15.27953271484375,4.431507587432861,10.155138969421387,1.550549030303955
1771038417272500500,15.29850048828125,3.3786656856536865,9.126225471496582,1.277767300605774
1771038417291468300,15.31746826171875,2.421536445617676,7.992027759552002,1.454836130142212
1771038417310436000,15.33643603515625,1.703689694404602,6.86261510848999,1.5409778356552124
1771038417329403600,15.355403564453125,1.2203395366668701,5.422136306762695,1.4261223077774048
1771038417348371500,15.374371337890626,1.2634103298187256,4.4650068283081055,0.9619147181510925
1771038417367339300,15.39333935546875,1.2681959867477417,4.192225456237793,0.7417750358581543
1771038417386307000,15.41230712890625,1.4835500717163086,4.005585193634033,1.6031911373138428
1771038417405275000,15.43127490234375,1.550549030303955,3.8668015003204346,2.579462766647339
1771038417424242700,15.45024267578125,2.3401806354522705,3.570091485977173,2.7517459392547607
1771038417443210200,15.469210205078125,2.7038896083831787,4.278367042541504,3.460021495819092
1771038417462178000,15.488177978515624,2.861815929412842,4.8191447257995605,4.316651821136475
1771038417481145900,15.507145751953125,2.823530673980713,5.096712112426758,4.000799655914307
1771038417500113700,15.52611376953125,3.373879909515381,5.4795637130737305,2.555534601211548
1771038417519081200,15.545081298828125,2.737389087677002,6.537191390991211,2.4023938179016113
1771038417538049000,15.564049072265625,2.3784656524658203,7.939385414123535,3.2542388439178467
1771038417557016800,15.583016845703124,2.5842485427856445,10.265209197998047,4.785645484924316
1771038417575984600,15.601984619140625,3.345165967941284,11.590832710266113,5.364708423614502
1771038417594952400,15.620952392578126,3.373879909515381,12.533604621887207,5.910272121429443
1771038417613920300,15.639920166015624,3.6131622791290283,13.194024085998535,6.417550563812256
1771038417632887800,15.6588876953125,4.713860511779785,13.495519638061523,6.4319071769714355
1771038417651855600,15.677855712890626,5.647061347961426,14.10808277130127,6.63769006729126
1771038417670823400,15.696823486328125,5.431707382202148,14.031512260437012,6.896114826202393
1771038417689791000,15.715791015625,4.517649173736572,13.787444114685059,7.4225358963012695
1771038417708758800,15.7347587890625,3.407379388809204,13.27538013458252,5.953342914581299
1771038417727726600,15.7537265625,3.3308091163635254,12.772887229919434,2.823530673980713
1771038417746694400,15.7726943359375,3.871587038040161,12.17946720123291,0.8422735929489136
1771038417765662000,15.791661865234374,1.8999011516571045,10.892128944396973,-0.09092725813388824
1771038417784629800,15.810629638671875,-0.46899324655532837,9.470791816711426,-0.5551348328590393
1771038417803597600,15.82959765625,-1.1676974296569824,8.0350980758667,-0.35413774847984314
1771038417822565400,15.8485654296875,-0.4833501875400543,7.221538543701172,-0.2584248483181
1771038417841533000,15.867532958984375,0.1052841991186142,6.8243303298950195,0.14835500717163086
1771038417860500700,15.886500732421876,0.5742774605751038,6.412764549255371,0.9236295223236084
1771038417879468500,15.905468505859375,0.9667003750801086,6.015556335449219,1.3399807214736938
1771038417898436000,15.92443603515625,0.8805587291717529,5.498706340789795,1.5792629718780518
1771038417917404000,15.94340380859375,0.4450650215148926,5.115854740142822,1.6414763927459717
1771038417936371700,15.962371826171875,0.7417750358581543,4.6372904777526855,1.679761528968811
1771038417955339300,15.98133935546875,1.0432707071304321,4.627718925476074,1.5074782371520996
1771038417974307000,16.00030712890625,1.0911271572113037,5.029713153839111,1.6031911373138428
1771038417993275000,16.01927490234375,0.5886343717575073,5.302495002746582,1.526620864868164
1771038418012242400,16.038242431640626,0.10049854964017868,5.388636589050293,0.8997012972831726
1771038418031210200,16.057210205078125,-0.7992027401924133,6.16391134262085,1.397408366203308
1771038418050177800,16.076177734375,-1.4213366508483887,6.872186660766602,2.5076780319213867
1771038418069145600,16.0951455078125,-2.9766714572906494,7.776673793792725,3.2925238609313965
1771038418088113400,16.114113525390625,-3.9864425659179688,8.786444664001465,3.297309637069702
1771038418107081000,16.1330810546875,-4.551148891448975,10.284351348876953,3.0340991020202637
1771038418126048800,16.152048828125,-4.086941242218018,11.911471366882324,3.34995174407959
1771038418145016300,16.171016357421873,-4.656432628631592,13.117453575134277,4.096512317657471
1771038418163984100,16.189984130859376,-4.910071849822998,13.706088066101074,5.091926574707031
1771038418182952000,16.208951904296875,-3.6323046684265137,14.151153564453125,5.06799840927124
1771038418201919500,16.22791943359375,-2.9527430534362793,14.414363861083984,5.197210788726807
1771038418220887300,16.24688720703125,-2.2444677352905273,13.47159194946289,5.029713153839111
1771038418239854800,16.265854736328127,-1.7180466651916504,11.753544807434082,4.8191447257995605
1771038418258822700,16.28482275390625,-1.368694543838501,10.427921295166016,4.728217601776123
1771038418277790200,16.303790283203124,-2.2301106452941895,9.212367057800293,3.94815731048584
1771038418296758000,16.322758056640627,-2.5746772289276123,7.8819580078125,3.0867412090301514
1771038418315725800,16.341725830078126,-2.3497519493103027,7.082755088806152,2.579462766647339
1771038418334693400,16.360693359375,-1.588834285736084,6.613761901855469,2.4837498664855957
1771038418353661200,16.3796611328125,-0.7513462901115417,6.235695838928223,2.2540390491485596
1771038418372628700,16.398628662109374,0.1579262912273407,6.211767673492432,1.8903298377990723
1771038418391596500,16.417596435546876,0.2584248483181,6.4079790115356445,1.9046868085861206
1771038418410564000,16.436564208984375,0.0526420995593071,6.259624004364014,1.8185452222824097
1771038418429532000,16.455531982421874,0.03349951654672623,6.092126369476318,1.612762451171875
1771038418448499500,16.47449951171875,0.17706887423992157,6.3122663497924805,1.698904037475586
1771038418467467300,16.49346728515625,0.9762716293334961,6.690331935882568,1.9956140518188477
1771038418486434800,16.512434814453126,1.9716858863830566,6.561119556427002,2.3736801147460938
1771038418505402400,16.53140234375,2.3976082801818848,5.72841739654541,2.3306093215942383
1771038418524370200,16.5503701171875,1.373480200767517,4.962714195251465,2.4885356426239014
1771038418543337700,16.569337646484374,-0.3732803463935852,5.197210788726807,2.579462766647339
1771038418562305500,16.588305419921873,-1.5553346872329712,5.982056617736816,2.723032236099243
1771038418581273000,16.607273193359376,-1.4644074440002441,5.513063430786133,3.201596736907959
1771038418600241000,16.626240966796875,-3.6227335929870605,4.996213912963867,3.5748770236968994
1771038418619208400,16.64520849609375,-6.537191390991211,5.718846321105957,4.043870449066162
1771038418638176300,16.66417626953125,-10.092926025390625,6.948757171630859,4.240081787109375
1771038418657143800,16.683143798828127,-13.447663307189941,8.906085968017578,4.206582069396973
1771038418676111400,16.702111328125,-16.017555236816406,10.667202949523926,3.5844483375549316
1771038418695079200,16.7210791015625,-16.75454330444336,12.141181945800781,2.148754835128784
1771038418714046700,16.740046630859375,-16.103696823120117,13.299307823181152,0.35892340540885925
1771038418733014500,16.7590146484375,-14.376078605651855,14.299508094787598,-0.7896314859390259
1771038418751982000,16.777982177734376,-11.174481391906738,14.797215461730957,-1.0193424224853516
1771038418770949600,16.79694970703125,-7.728816986083984,14.54357624053955,-1.2586246728897095
1771038418789917400,16.81591748046875,-4.522434711456299,13.428520202636719,-1.0671988725662231
1771038418808885000,16.834885009765625,-2.9240293502807617,11.753544807434082,-0.06699903309345245
1771038418827852500,16.8538525390625,-2.478964328765869,9.810572624206543,1.3399807214736938
1771038418846820400,16.8728203125,-1.7228323221206665,7.609176158905029,1.196411371231079
1771038418865788000,16.891787841796877,-0.40677985548973083,5.54177713394165,1.3160524368286133
1771038418884755500,16.91075537109375,0.6891329288482666,4.618147850036621,2.5363919734954834
1771038418903723300,16.92972314453125,1.7563318014144897,4.828716278076172,4.311866283416748
1771038418922690800,16.94869091796875,1.2059825658798218,4.7473602294921875,4.48414945602417
1771038418941658400,16.967658447265624,0.8374879360198975,4.742574691772461,4.4650068283081055
1771038418960626200,16.986626220703126,0.7657032608985901,4.7952165603637695,4.125226020812988
1771038418979593700,17.00559375,1.6701902151107788,4.402793884277344,3.4552359580993652
1771038418998561300,17.024561279296876,2.2923240661621094,4.627718925476074,2.943171739578247
1771038419017529000,17.043529052734375,2.7421748638153076,5.3312087059021,2.4502503871917725
1771038419036496600,17.06249658203125,3.0963125228881836,6.374479293823242,2.3784656524658203
1771038419055464200,17.081464111328124,2.2683959007263184,7.513463020324707,2.861815929412842
1771038419074431700,17.100431640625,1.301695466041565,8.13081169128418,2.5698914527893066
1771038419093399600,17.119399658203125,1.521835207939148,8.082955360412598,2.0243279933929443
1771038419112367000,17.1383671875,0.5742774605751038,10.006784439086914,3.761517286300659
1771038419131334700,17.157334716796875,0.44027936458587646,11.3180513381958,5.087141036987305
1771038419150302200,17.17630224609375,0.4163511395454407,11.56690502166748,5.718846321105957
1771038419169270000,17.19527001953125,-1.0480563640594482,10.916056632995605,5.828916072845459
1771038419188237600,17.214237548828127,-2.641676187515259,10.604990005493164,7.17368221282959
1771038419207205000,17.233205078125,-2.2396819591522217,10.6624174118042,8.159524917602539
1771038419226172700,17.252172607421876,-1.4117653369903564,11.619546890258789,9.245866775512695
1771038419245140500,17.271140380859375,-0.8997012972831726,12.399606704711914,9.997213363647461
1771038419264108000,17.29010791015625,0.24406790733337402,11.49512004852295,8.719446182250977
1771038419283075600,17.30907568359375,1.3208380937576294,10.652846336364746,7.637889862060547
1771038419302043100,17.328043212890623,1.4883357286453247,9.987641334533691,7.326822757720947
1771038419321010700,17.3470107421875,1.3208380937576294,9.533005714416504,6.652047157287598
1771038419339978500,17.365978515625,0.6795616149902344,8.738588333129883,5.651846885681152
1771038419358946000,17.384946044921875,0.4450650215148926,8.236095428466797,4.096512317657471
1771038419377913600,17.40391357421875,1.3878371715545654,7.17368221282959,2.1535403728485107
1771038419396881200,17.422881103515625,1.7084753513336182,6.3601226806640625,1.8376877307891846
1771038419415848700,17.4418486328125,0.8949156403541565,5.402993679046631,2.2444677352905273
1771038419434816300,17.460816162109374,-0.9475577473640442,4.067798614501953,1.5170495510101318
1771038419453784000,17.4797841796875,-2.2205393314361572,3.445664644241333,0.8231309652328491
1771038419472751600,17.498751708984376,-2.675175666809082,3.081955671310425,0.2584248483181
1771038419491719200,17.51771923828125,-1.8807586431503296,3.0723843574523926,0.10049854964017868
1771038419510686700,17.536686767578125,-0.6508477330207825,3.5126636028289795,1.6271194219589233
1771038419529654300,17.555654296875,-0.35413774847984314,4.273581027984619,2.957528829574585
1771038419548621800,17.574621826171875,-0.5694918036460876,4.3549370765686035,2.478964328765869
1771038419567589400,17.59358935546875,-2.249253273010254,4.785645484924316,1.2394821643829346
1771038419586557200,17.61255712890625,-3.871587038040161,5.364708423614502,0.43549370765686035
1771038419605524700,17.631524658203126,-5.436492919921875,6.876972198486328,1.588834285736084
1771038419624492300,17.6504921875,-6.551548480987549,9.020941734313965,3.2303106784820557
1771038419643459800,17.6694599609375,-7.714460372924805,11.0835542678833,4.249652862548828
1771038419662427400,17.688427490234375,-7.393822193145752,12.667603492736816,3.84765887260437
1771038419681395000,17.70739501953125,-6.010770320892334,14.117653846740723,2.746960401535034
1771038419700362500,17.726362548828124,-4.833501815795898,14.82114315032959,3.0628130435943604
1771038419719330000,17.745330078125,-4.398007869720459,14.529218673706055,3.0484559535980225
1771038419738297600,17.764297607421874,-4.962714195251465,14.395220756530762,3.565305709838867
1771038419757265200,17.78326513671875,-3.8763725757598877,13.418949127197266,3.2781670093536377
1771038419776232700,17.802232666015627,-2.225325107574463,11.696117401123047,2.9001009464263916
1771038419795200300,17.8212001953125,-0.7417750358581543,9.915857315063477,1.6845471858978271
1771038419814167800,17.840167724609376,0.97148597240448,8.82951545715332,0.8231309652328491
1771038419833135600,17.859135498046875,2.7900311946868896,8.001599311828613,0.6652047038078308
1771038419852103200,17.878103271484374,3.871587038040161,7.566105365753174,0.9571290612220764
1771038419871070500,17.897070556640625,4.3310089111328125,7.575676441192627,0.7178468108177185
1771038419890038300,17.916038330078123,4.034298896789551,7.221538543701172,1.0145567655563354
1771038419909005800,17.935005859375,3.541377544403076,5.795416355133057,1.3591232299804688
1771038419927973400,17.953973388671876,2.282752752304077,5.656632900238037,2.1535403728485107
1771038419946941000,17.97294091796875,2.1200408935546875,5.575276851654053,2.5220351219177246
1771038419965908500,17.991908447265626,2.249253273010254,5.513063430786133,2.5459632873535156
1771038419984876000,18.0108759765625,1.8233308792114258,5.4173502922058105,1.9908283948898315
1771038420003843600,18.029843505859375,1.1150553226470947,5.173282623291016,1.5936198234558105
1771038420022811100,18.04881103515625,0.4977070987224579,5.101497650146484,0.4737788736820221
1771038420041778700,18.06777880859375,0.1866401731967926,5.8719868659973145,0.4450650215148926
1771038420060746200,18.086746337890624,0.32542386651039124,7.5708909034729,1.1820544004440308
1771038420079713800,18.1057138671875,1.100698471069336,8.159524917602539,0.4546363055706024
1771038420098681300,18.124681396484377,1.4739787578582764,7.369893550872803,-0.3158525824546814
1771038420117649000,18.14364892578125,0.6029912829399109,7.489534854888916,0.009571290574967861
1771038420136616400,18.162616455078126,0.1339980661869049,8.178668022155762,-2.967100143432617
1771038420155583700,18.181583740234377,0.24406790733337402,7.747959613800049,-9.55214786529541
1771038420174551300,18.20055126953125,-2.794816732406616,5.125426292419434,-15.663416862487793
1771038420193518800,18.219518798828126,-9.308079719543457,4.9292144775390625,-15.481562614440918
1771038420212486400,18.238486328125,-12.461820602416992,5.8719868659973145,-13.36152172088623
1771038420231454000,18.257453857421876,-12.67717456817627,5.766702651977539,-15.074782371520996
1771038420250421500,18.27642138671875,-11.854043006896973,5.154139995574951,-17.687744140625
1771038420269389000,18.29538916015625,-9.221938133239746,4.694717884063721,-18.28594970703125
1771038420288356600,18.314356689453124,-4.742574691772461,3.9864425659179688,-15.467206001281738
1771038420307324200,18.33332421875,-1.4117653369903564,4.402793884277344,-12.260823249816895
1771038420326291700,18.352291748046873,-1.0049854516983032,4.1970109939575195,-11.839686393737793
1771038420345259300,18.37125927734375,-3.067598581314087,1.9956140518188477,-14.510076522827148
1771038420364226800,18.390226806640626,-3.603590965270996,-0.48813581466674805,-17.190038681030273
1771038420383194000,18.409194091796873,-2.5076780319213867,-1.7611174583435059,-17.716459274291992
1771038420402161700,18.42816162109375,0.24406790733337402,-1.9142581224441528,-17.592031478881836
1771038420421129200,18.447129150390627,4.40757942199707,-1.7994025945663452,-15.060425758361816
1771038420440096800,18.4660966796875,7.781459331512451,-0.9379864931106567,-11.562119483947754
1771038420459064300,18.485064208984376,8.910871505737305,1.062413215637207,-8.475378036499023
1771038420478032000,18.504031982421875,8.451449394226074,2.1439690589904785,-6.92482852935791
1771038420496999400,18.52299951171875,6.790830612182617,2.148754835128784,-6.695117950439453
1771038420515967000,18.541967041015624,4.07258415222168,1.9142581224441528,-6.704689025878906
1771038420534934300,18.560934326171875,2.2205393314361572,1.550549030303955,-7.527820110321045
1771038420553901800,18.57990185546875,2.9240293502807617,1.5170495510101318,-7.628318786621094
1771038420572869400,18.598869384765624,4.273581027984619,3.3882367610931396,-6.427121639251709
1771038420591837000,18.6178369140625,6.049055576324463,4.9292144775390625,-5.795416355133057
1771038420610804500,18.636804443359374,6.618547439575195,5.66620397567749,-5.584847927093506
1771038420629772000,18.65577197265625,6.0538411140441895,5.9198431968688965,-5.8959150314331055
1771038420648739300,18.6747392578125,4.800002098083496,6.10169792175293,-6.9104719161987305
1771038420667707000,18.693706787109374,3.373879909515381,5.670989513397217,-8.647661209106445
1771038420686674400,18.71267431640625,2.933600664138794,5.580062389373779,-8.757730484008789
1771038420705642000,18.73164208984375,2.407179594039917,6.819544315338135,-7.274180889129639
1771038420724609500,18.750609619140626,0.2632105052471161,8.738588333129883,-5.446064472198486
1771038420743576800,18.769576904296876,-2.383251428604126,9.729216575622559,-7.183253765106201
1771038420762544400,18.78854443359375,-4.340580463409424,10.202995300292969,-11.83011531829834
1771038420781512000,18.807511962890626,-3.0723843574523926,9.561718940734863,-16.472190856933594
1771038420800479500,18.8264794921875,-0.8183453679084778,9.32722282409668,-14.08415412902832
1771038420819447000,18.845447021484375,-0.14835500717163086,9.279366493225098,-9.686145782470703
1771038420838414300,18.864414306640626,-0.04307080805301666,8.944371223449707,-7.8388872146606445
1771038420857382000,18.8833818359375,0.33020952343940735,8.461020469665527,-7.733603000640869
1771038420876349400,18.902349365234375,2.4646072387695312,7.4464640617370605,-7.867600917816162
1771038420895317000,18.92131689453125,3.90987229347229,7.341179847717285,-6.3361945152282715
1771038420914284300,18.9402841796875,3.9529430866241455,6.948757171630859,-4.9052863121032715
1771038420933251800,18.959251953125,2.531606435775757,5.642275810241699,-3.9050865173339844
1771038420952219400,18.978219482421874,0.17228323221206665,4.077369689941406,-3.5988051891326904
1771038420971186700,18.997186767578125,-0.97148597240448,3.005385160446167,-3.1250264644622803
1771038420990154200,19.016154296875,-1.3160524368286133,2.809173822402954,-3.3020951747894287
1771038421009121800,19.035121826171874,0.009571290574967861,2.6225335597991943,-4.340580463409424
1771038421028089300,19.05408935546875,0.5359922647476196,3.2781670093536377,-4.627718925476074
1771038421047056600,19.073056640625,0.5455635786056519,3.6370904445648193,-4.555934429168701
1771038421066024200,19.092024169921874,0.397208571434021,4.2209391593933105,-4.043870449066162
1771038421084991700,19.11099169921875,0.8662018179893494,4.7952165603637695,-4.374079704284668
1771038421103959300,19.129959228515624,1.0001999139785767,5.489135265350342,-4.867001056671143
1771038421122926600,19.148926513671874,0.7848458290100098,6.474977970123291,-4.890929698944092
1771038421141894100,19.16789404296875,0.43549370765686035,7.733603000640869,-3.091526746749878
1771038421160861700,19.18686181640625,-0.40677985548973083,8.508877754211426,-1.3495519161224365
1771038421179829000,19.2058291015625,-1.6606189012527466,8.824729919433594,-3.460021495819092
1771038421198796500,19.224796630859377,-0.5934200286865234,8.303094863891602,-7.460821151733398
1771038421217764000,19.24376416015625,1.2873386144638062,8.116454124450684,-9.174081802368164
1771038421236731400,19.2627314453125,2.2396819591522217,8.58066177368164,-8.279166221618652
1771038421255699000,19.281698974609377,2.3401806354522705,7.963313579559326,-8.346165657043457
1771038421274666500,19.30066650390625,1.1054840087890625,6.891329288482666,-8.298309326171875
1771038421293633800,19.3196337890625,-0.397208571434021,6.317051887512207,-7.259823799133301
1771038421312601300,19.338601318359373,-1.3639088869094849,5.307280540466309,-7.0683979988098145
1771038421331569000,19.35756884765625,-1.5026925802230835,4.646861553192139,-8.0350980758667
1771038421350536200,19.3765361328125,-0.32542386651039124,4.182653903961182,-9.174081802368164
1771038421369503700,19.395503662109373,1.0049854516983032,4.1970109939575195,-9.753145217895508
1771038421388471300,19.41447119140625,1.3399807214736938,3.6849467754364014,-9.399007797241211
1771038421407438600,19.4334384765625,1.4404792785644531,3.201596736907959,-9.963713645935059
1771038421426406100,19.45240625,2.9479575157165527,2.550748825073242,-11.432906150817871
1771038421445373400,19.47137353515625,5.292923450469971,3.2446675300598145,-12.294322967529297
1771038421464341000,19.490341064453126,7.5804619789123535,3.7950167655944824,-13.328022003173828
1771038421483308500,19.50930859375,8.336593627929688,3.895515203475952,-12.672389030456543
1771038421502275800,19.52827587890625,8.049455642700195,3.091526746749878,-12.471391677856445
1771038421521243400,19.547243408203126,8.09252643585205,2.531606435775757,-13.25145149230957
1771038421540211000,19.5662109375,9.030512809753418,2.651247501373291,-13.596017837524414
1771038421559178200,19.58517822265625,8.499305725097656,2.5220351219177246,-12.002398490905762
1771038421578145800,19.604145751953126,7.6474609375,2.8666014671325684,-9.169296264648438
1771038421597113000,19.623113037109373,6.991827964782715,2.8761727809906006,-7.302894592285156
1771038421616080600,19.64208056640625,6.226124286651611,3.014956474304199,-6.436692714691162
1771038421635048000,19.6610478515625,5.9676995277404785,3.2542388439178467,-6.049055576324463
1771038421654015500,19.680015380859373,4.326223373413086,3.9385859966278076,-5.527420520782471
1771038421672983000,19.698983154296876,4.091726779937744,3.7902309894561768,-5.522634506225586
1771038421691950300,19.717950439453126,3.3068809509277344,3.7663028240203857,-4.962714195251465
1771038421710918000,19.73691796875,2.210968017578125,3.4983067512512207,-4.230510234832764
1771038421729885200,19.75588525390625,1.94297194480896,3.1585259437561035,-5.020142078399658
1771038421748852700,19.774852783203126,2.531606435775757,3.541377544403076,-5.465207099914551
1771038421767820300,19.7938203125,3.5126636028289795,4.144368648529053,-4.809573650360107
1771038421786787600,19.81278759765625,3.9433717727661133,4.536791801452637,-4.54636287689209
1771038421805755100,19.831755126953126,4.096512317657471,4.632504463195801,-5.2977094650268555
1771038421824722400,19.850722412109373,4.398007869720459,4.957928657531738,-5.498706340789795
1771038421843690000,19.86968994140625,3.775874137878418,5.173282623291016,-6.728617191314697
1771038421862657300,19.8886572265625,3.0245277881622314,4.867001056671143,-8.001599311828613
1771038421881624800,19.907624755859374,3.2446675300598145,4.3788652420043945,-8.537590980529785
1771038421900592000,19.926592041015624,3.4887354373931885,4.192225456237793,-8.446663856506348
1771038421919559700,19.9455595703125,3.3068809509277344,3.8285162448883057,-10.03549861907959
1771038421938527000,19.96452685546875,3.1489546298980713,2.4598217010498047,-13.663017272949219
1771038421957494500,19.98349462890625,4.106083869934082,1.277767300605774,-16.486547470092773
1771038421976461800,20.0024619140625,6.833901405334473,1.2251251935958862,-15.720845222473145
1771038421995429400,20.021429443359374,9.226723670959473,1.6271194219589233,-13.452448844909668
1771038422014396700,20.040396728515624,9.135796546936035,1.5026925802230835,-11.743973731994629
1771038422033364200,20.0593642578125,7.5565338134765625,0.5838487148284912,-11.801401138305664
1771038422052331800,20.078331787109374,6.489335060119629,-0.4019941985607147,-11.3180513381958
1771038422071299000,20.097299072265624,5.742774486541748,-1.1054840087890625,-10.265209197998047
1771038422090266400,20.116266357421875,4.910071849822998,-1.4787644147872925,-8.839086532592773
1771038422109234000,20.13523388671875,4.106083869934082,-1.832902193069458,-7.628318786621094
1771038422128201200,20.154201171875,3.6370904445648193,-2.234896421432495,-7.015756130218506
1771038422147168800,20.173168701171875,3.28773832321167,-2.5746772289276123,-6.546762943267822
1771038422166136000,20.192135986328125,2.9623143672943115,-2.861815929412842,-6.044270038604736
1771038422185103600,20.211103515625,2.7278177738189697,-3.129812002182007,-5.407779216766357
1771038422204071000,20.23007080078125,2.555534601211548,-3.6849467754364014,-5.00578498840332
1771038422232522200,20.258522216796877,2.861815929412842,-4.622933387756348,-4.867001056671143
1771038422251489500,20.277489501953124,3.4743785858154297,-4.986642360687256,-4.766502857208252
1771038422270456800,20.296456787109374,4.168296813964844,-4.890929698944092,-4.048655986785889
1771038422289424400,20.31542431640625,4.847858905792236,-4.512863636016846,-3.297309637069702
1771038422308391700,20.3343916015625,5.848058700561523,-4.661218643188477,-3.029313564300537
1771038422327359200,20.353359130859374,6.690331935882568,-4.847858905792236,-2.6799614429473877
1771038422346326500,20.372326416015625,7.470392227172852,-4.737788677215576,-2.761317253112793
1771038422365294000,20.391294189453124,8.078168869018555,-4.828716278076172,-3.3690943717956543
1771038422384261400,20.410261474609374,8.85344409942627,-5.087141036987305,-4.512863636016846
1771038422412712400,20.43871240234375,10.327422142028809,-5.3694939613342285,-6.446264266967773
1771038422431680000,20.457679931640627,10.782058715820312,-6.809973239898682,-7.767102241516113
1771038422450647300,20.476647216796874,10.98305606842041,-9.006584167480469,-9.078369140625
1771038422469614600,20.495614501953124,9.595218658447266,-10.04985523223877,-10.480563163757324
1771038422488582100,20.51458203125,7.685746192932129,-8.6907320022583,-11.638689041137695
1771038422507549400,20.533549560546874,6.843472957611084,-6.853044033050537,-12.701102256774902
1771038422526517000,20.55251708984375,8.848658561706543,-7.661818027496338,-14.256437301635742
1771038422545484300,20.571484375,9.403793334960938,-9.422935485839844,-13.61037540435791
1771038422564451600,20.59045166015625,10.681560516357422,-9.10229778289795,-11.408978462219238
1771038422583419100,20.609419189453124,13.586446762084961,-8.173882484436035,-10.088140487670898
1771038422602386400,20.628386474609375,15.457633972167969,-7.11146879196167,-9.111868858337402
1771038422621354000,20.64735400390625,16.955541610717773,-6.144768714904785,-9.274580955505371
1771038422640321300,20.6663212890625,17.649459838867188,-6.0777692794799805,-9.083154678344727
1771038422659288600,20.68528857421875,17.065610885620117,-6.206982135772705,-10.289137840270996
1771038422678256000,20.704256103515625,15.467206001281738,-6.709474563598633,-10.84427261352539
1771038422697223400,20.723223388671876,14.409578323364258,-6.967899322509766,-10.159924507141113
1771038422716190700,20.742190673828127,12.92602825164795,-6.3122663497924805,-9.34157943725586
1771038422735158300,20.761158203125,9.81535816192627,-4.53200626373291,-6.412764549255371
1771038422754125600,20.78012548828125,7.23589563369751,-3.2350962162017822,-4.393222332000732
1771038422773093000,20.799093017578127,6.16391134262085,-2.3976082801818848,-3.775874137878418
1771038422792060400,20.818060302734374,6.206982135772705,-1.6941183805465698,-2.9766714572906494
1771038422811027700,20.83702783203125,6.436692714691162,-1.9860427379608154,-2.2444677352905273
1771038422829995300,20.855995361328127,5.364708423614502,-2.541177749633789,-1.947757601737976
1771038422848962600,20.874962646484374,4.752145767211914,-2.2301106452941895,-2.407179594039917
1771038422867929900,20.893929931640624,4.125226020812988,-1.521835207939148,-2.1296122074127197
1771038422886897400,20.9128974609375,1.306481122970581,-0.9427721500396729,-1.7515461444854736
1771038422905864700,20.93186474609375,-0.4498506486415863,0.3397808074951172,-1.7994025945663452
1771038422924832000,20.95083203125,0.2105683982372284,1.8903298377990723,-1.397408366203308
1771038422943799600,20.969799560546875,1.038485050201416,3.809373617172241,-1.679761528968811
1771038422962766800,20.988766845703125,2.282752752304077,5.2115678787231445,-2.9240293502807617
1771038422981734100,21.007734130859376,4.015156269073486,6.044270038604736,-3.431307554244995
1771038423000701700,21.02670166015625,3.5030922889709473,7.671389579772949,-2.7086751461029053
1771038423019669000,21.0456689453125,2.555534601211548,10.313065528869629,-2.7182464599609375
1771038423038636300,21.06463623046875,2.3258235454559326,12.591032981872559,-2.3401806354522705
1771038423057603800,21.083603759765627,3.2303106784820557,12.44267749786377,-2.1774685382843018
1771038423076571100,21.102571044921874,3.9529430866241455,10.375279426574707,-1.4117653369903564
1771038423095538400,21.121538330078124,3.081955671310425,8.499305725097656,0.4307080805301666
1771038423114506000,21.140506103515627,2.163111686706543,7.5086774826049805,2.1104695796966553
1771038423133473300,21.159473388671874,2.3736801147460938,6.8865437507629395,2.0243279933929443
1771038423152440600,21.178440673828124,3.4265220165252686,6.561119556427002,-0.16749759018421173
1771038423171408100,21.197408203125,4.436293125152588,5.642275810241699,-3.2685956954956055
1771038423190375400,21.21637548828125,5.106283664703369,4.886143684387207,-5.058426856994629
1771038423209342700,21.2353427734375,4.053441524505615,4.326223373413086,-5.254638671875
1771038423228310000,21.25431005859375,3.34995174407959,3.28773832321167,-5.259424209594727
1771038423247277600,21.273277587890625,2.9766714572906494,1.6223337650299072,-4.6372904777526855
1771038423266244900,21.292244873046876,2.761317253112793,0.9332008361816406,-3.4504501819610596
1771038423285212200,21.311212158203126,3.0628130435943604,1.5696916580200195,-2.3258235454559326
1771038423304179500,21.330179443359373,4.211368083953857,2.943171739578247,-0.25363919138908386
1771038423323147000,21.34914697265625,4.369294166564941,3.7184464931488037,1.5170495510101318
1771038423342114300,21.3681142578125,5.3312087059021,3.617947816848755,1.6941183805465698
1771038423361081600,21.38708154296875,5.264209747314453,2.421536445617676,1.9142581224441528
1771038423380049200,21.406049072265624,3.924229145050049,0.6604190468788147,4.029513359069824
1771038423399016400,21.425016357421875,3.1345977783203125,-0.9332008361816406,6.379265308380127
1771038423417983700,21.443983642578125,4.388436794281006,-2.9001009464263916,6.522834300994873
1771038423436951000,21.462950927734376,7.800601959228516,-4.42193603515625,3.895515203475952
1771038423455918600,21.481918701171875,11.385049819946289,-4.756931304931641,2.857030153274536
1771038423474886000,21.500885986328125,13.74915885925293,-4.326223373413086,2.9623143672943115
1771038423493853200,21.519853271484376,13.940585136413574,-3.7328033447265625,2.407179594039917
1771038423512820500,21.538820556640626,14.691930770874023,-5.144568920135498,1.7084753513336182
1771038423531788000,21.5577880859375,19.271793365478516,-3.0101709365844727,2.234896421432495
1771038423550755300,21.57675537109375,23.066810607910156,-0.0526420995593071,4.115654945373535
1771038423569722600,21.59572265625,25.430919647216797,1.3399807214736938,4.000799655914307
1771038423588690000,21.61468994140625,24.4211483001709,-0.08135596662759781,2.2683959007263184
1771038423607657500,21.633657470703124,23.11945152282715,0.5359922647476196,1.100698471069336
1771038423626624800,21.652624755859375,24.325435638427734,3.053241729736328,0.6317051649093628
1771038423645592000,21.671592041015625,28.46023178100586,6.675975322723389,-3.6610186100006104
1771038423664559400,21.690559326171876,31.121051788330078,9.308079719543457,-10.571490287780762
1771038423683527000,21.70952685546875,28.287948608398438,9.604789733886719,-11.576476097106934
1771038423702494200,21.728494140625,22.320249557495117,9.748359680175781,-11.619546890258789
1771038423721461500,21.74746142578125,14.701501846313477,6.570691108703613,-11.236695289611816
1771038423740428800,21.7664287109375,6.082555294036865,4.211368083953857,-8.920442581176758
1771038423759396400,21.785396240234373,0.38763725757598877,1.4117653369903564,-6.489335060119629
1771038423778363600,21.80436376953125,-2.641676187515259,-0.24406790733337402,-5.072783946990967
1771038423797331000,21.8233310546875,-4.163511276245117,-0.2871387302875519,-4.412364959716797
1771038423816298200,21.84229833984375,-4.374079704284668,0.3445664644241333,-3.5270206928253174
1771038423835265800,21.861265869140624,-3.84765887260437,1.3830515146255493,-2.9623143672943115
1771038423854233000,21.880233154296874,-2.1439690589904785,2.651247501373291,-2.1056840419769287
1771038423873200400,21.899200439453125,-0.7082754969596863,5.115854740142822,-0.37806597352027893
1771038423892167700,21.918167724609376,1.6366907358169556,7.345965385437012,0.27756741642951965
1771038423911135000,21.937135009765626,3.4791641235351562,7.6043901443481445,-0.06699903309345245
1771038423930102500,21.9561025390625,3.053241729736328,7.144968509674072,0.1579262912273407
1771038423949069800,21.97506982421875,2.124826431274414,6.5180487632751465,1.057627558708191
1771038423968037000,21.994037109375,1.306481122970581,5.546562671661377,1.4835500717163086
1771038423987004400,22.01300439453125,1.7611174583435059,4.311866283416748,-1.5792629718780518
1771038424005972000,22.031971923828124,4.431507587432861,2.3401806354522705,-7.412964344024658
1771038424024939300,22.050939208984374,6.254838466644287,0.24885354936122894,-12.361321449279785
1771038424043906600,22.069906494140625,7.853243827819824,-0.6604190468788147,-10.906485557556152
1771038424062873900,22.088873779296875,7.168896675109863,-0.3732803463935852,-5.06799840927124
1771038424081841200,22.107841064453126,5.54177713394165,2.699103832244873,1.0001999139785767
1771038424100808700,22.12680859375,9.973284721374512,5.498706340789795,2.517249345779419
1771038424119776000,22.14577587890625,15.290136337280273,7.747959613800049,2.761317253112793
1771038424138743300,22.164743408203126,15.127425193786621,5.843272686004639,4.584648132324219
1771038424157710600,22.183710693359377,13.605589866638184,4.168296813964844,4.029513359069824
1771038424176678000,22.202677978515624,10.432706832885742,-0.7657032608985901,-1.2586246728897095
1771038424195645200,22.221645263671874,7.278966426849365,-2.9048867225646973,-3.6610186100006104
1771038424214612700,22.24061279296875,3.996013879776001,-2.5986053943634033,-3.9529430866241455
1771038424233580000,22.259580078125,3.2446675300598145,-3.82373046875,-4.153940200805664
1771038424252547300,22.27854736328125,3.014956474304199,-3.6466617584228516,-2.4263222217559814
1771038424271514600,22.2975146484375,3.129812002182007,-2.823530673980713,0.22492532432079315
1771038424290482000,22.31648193359375,5.364708423614502,-2.148754835128784,0.19621145725250244
1771038424309449200,22.33544921875,9.868000984191895,-2.4981069564819336,-2.4263222217559814
1771038424328416800,22.354416748046877,11.810972213745117,-1.8616160154342651,-2.368894338607788
1771038424347384000,22.373384033203124,10.71984577178955,-1.4931213855743408,-0.7322037220001221
1771038424366351400,22.392351318359374,9.604789733886719,-2.3401806354522705,-0.062213387340307236
1771038424385318700,22.411318603515625,9.45164966583252,-3.9050865173339844,-0.5024927258491516
1771038424404286000,22.430285888671875,10.112068176269531,-5.20678186416626,-1.852044701576233
1771038424423253200,22.449253173828126,13.586446762084961,-5.551348686218262,-3.656233072280884
1771038424442220500,22.468220458984376,18.276378631591797,-4.8813581466674805,-5.149354457855225
1771038424461188000,22.48718798828125,20.91326904296875,-4.460221290588379,-5.929414749145508
1771038424480155400,22.5061552734375,19.793428421020508,-4.900500774383545,-5.986842155456543
1771038424499122700,22.525122802734376,18.276378631591797,-4.890929698944092,-8.504091262817383
1771038424518090000,22.544090087890623,17.35274887084961,-3.5030922889709473,-13.83530044555664
1771038424537057300,22.563057373046874,17.64467430114746,-0.8087740540504456,-17.1469669342041
1771038424556024600,22.582024658203125,19.42493438720703,0.4498506486415863,-15.567704200744629
1771038424574992000,22.600991943359375,19.142581939697266,-1.454836130142212,-13.036097526550293
1771038424593959400,22.61995947265625,16.500904083251953,-4.278367042541504,-13.954941749572754
1771038424612926700,22.6389267578125,16.12762451171875,-0.7322037220001221,-19.568504333496094
1771038424631894000,22.65789404296875,19.405792236328125,-0.30149564146995544,-23.51187515258789
1771038424650861300,22.676861328125,17.419748306274414,1.9956140518188477,-18.817157745361328
1771038424669828600,22.69582861328125,11.188838958740234,1.2538390159606934,-14.615360260009766
1771038424688796000,22.7147958984375,4.460221290588379,0.8327022790908813,-11.724830627441406
1771038424707763200,22.73376318359375,1.6606189012527466,0.13878370821475983,-9.820143699645996
1771038424726730500,22.75273046875,-0.363709032535553,-1.0432707071304321,-6.805187702178955
1771038424745697800,22.77169775390625,-1.5792629718780518,-1.4069796800613403,-2.9718856811523438
1771038424764665000,22.7906650390625,-2.4885356426239014,-1.1485549211502075,0.35892340540885925
1771038424783632400,22.80963232421875,-3.421736478805542,-0.16749759018421173,2.2205393314361572
1771038424802600000,22.828599853515627,-3.211168050765991,0.7992027401924133,3.2063822746276855
1771038424821567200,22.847567138671874,-1.7467604875564575,1.521835207939148,2.651247501373291
1771038424840534500,22.866534423828124,0.2727817893028259,2.1583259105682373,1.4165509939193726
1771038424859501800,22.885501708984375,2.2636101245880127,2.2205393314361572,-0.4163511395454407
1771038424878469000,22.90446923828125,3.5605201721191406,2.60339093208313,-0.49292147159576416
1771038424897436400,22.9234365234375,2.5220351219177246,3.84765887260437,1.919043779373169
1771038424916403700,22.94240380859375,2.115255117416382,4.268795490264893,2.857030153274536
1771038424935371000,22.96137109375,1.3399807214736938,4.622933387756348,2.2779672145843506
1771038424954338300,22.98033837890625,2.172683000564575,4.206582069396973,-2.861815929412842
1771038424973305600,22.9993056640625,5.546562671661377,3.9290146827697754,-8.896514892578125
1771038424992273000,23.01827294921875,8.34138011932373,4.455435752868652,-11.045269012451172
1771038425011240200,23.037240234375,9.006584167480469,4.364508628845215,-11.834900856018066
1771038425030207500,23.05620751953125,9.284152030944824,2.7804598808288574,-11.7056884765625
1771038425049174800,23.0751748046875,7.599604606628418,3.5988051891326904,-6.273981094360352
1771038425068142300,23.094142333984376,8.819944381713867,6.86261510848999,-3.689732551574707
1771038425087109600,23.113109619140626,12.921242713928223,9.422935485839844,-4.7952165603637695
1771038425106077000,23.132076904296873,16.644474029541016,11.131410598754883,-4.618147850036621
1771038425125044200,23.151044189453124,16.07976722717285,10.356136322021484,-5.627918720245361
1771038425144011500,23.170011474609375,11.327622413635254,9.317651748657227,-4.508078098297119
1771038425162978800,23.188978759765625,6.86261510848999,7.0923261642456055,-4.689932346343994
1771038425181946000,23.207946044921876,3.6705899238586426,3.713660717010498,-5.120640277862549
1771038425200913400,23.226913330078126,2.368894338607788,0.9667003750801086,-5.828916072845459
1771038425219880700,23.245880615234373,2.091326951980591,-0.2632105052471161,-6.096911907196045
1771038425238848000,23.264847900390624,1.5026925802230835,-0.2105683982372284,-3.972085475921631
1771038425257815300,23.283815185546874,1.215553879737854,0.05742774158716202,-0.9667003750801086
1771038425276782600,23.302782470703125,0.7369893789291382,0.3732803463935852,1.6031911373138428
1771038425295750000,23.32175,0.5407779216766357,0.641276478767395,1.8855443000793457
1771038425314717200,23.34071728515625,1.856830358505249,0.4546363055706024,-0.35892340540885925
1771038425333684500,23.3596845703125,4.364508628845215,0.5838487148284912,-3.3547372817993164
1771038425352651800,23.37865185546875,6.173482418060303,1.7084753513336182,-3.809373617172241
1771038425371619000,23.397619140625,6.9583282470703125,2.4358935356140137,-3.28773832321167
1771038425390586400,23.41658642578125,6.465406894683838,2.2396819591522217,-2.837887763977051
1771038425409553700,23.4355537109375,6.3840508460998535,1.6031911373138428,-3.996013879776001
1771038425428520700,23.454520751953126,8.542376518249512,1.2442678213119507,-7.4225358963012695
1771038425447488000,23.473488037109377,11.638689041137695,1.5074782371520996,-9.757930755615234
1771038425466455300,23.492455322265624,15.926627159118652,2.7278177738189697,-12.524033546447754
1771038425485422600,23.511422607421874,19.941783905029297,3.6610186100006104,-16.98904037475586
1771038425504390000,23.530389892578125,21.535404205322266,3.704089403152466,-19.874784469604492
1771038425523357200,23.549357177734375,18.032312393188477,2.9288148880004883,-16.74018669128418
1771038425542324500,23.568324462890626,12.007184028625488,1.8616160154342651,-11.657832145690918
1771038425561291800,23.587291748046876,8.82951545715332,0.7226324677467346,-12.169896125793457
1771038425580259000,23.606259033203123,9.442078590393066,1.6414763927459717,-11.887542724609375
1771038425599226400,23.625226318359374,10.351350784301758,3.211168050765991,-11.289337158203125
1771038425618193700,23.644193603515625,10.432706832885742,4.522434711456299,-10.77248764038086
1771038425637161000,23.663160888671875,7.939385414123535,5.575276851654053,-10.116853713989258
1771038425656128300,23.682128173828126,6.106483459472656,5.733202934265137,-11.452049255371094
1771038425675095600,23.701095458984376,5.125426292419434,6.001199245452881,-11.073983192443848
1771038425694062800,23.720062744140623,3.6227335929870605,4.785645484924316,-10.805987358093262
1771038425713030100,23.739030029296874,0.8566305041313171,3.689732551574707,-10.289137840270996
1771038425731997400,23.75799755859375,-0.4259224236011505,2.8139593601226807,-9.628718376159668
1771038425750964700,23.77696484375,-0.11964113265275955,2.2301106452941895,-8.063812255859375
1771038425769931800,23.795931884765626,0.8805587291717529,2.076970100402832,-4.948357105255127
1771038425788899000,23.814899169921876,1.1485549211502075,2.076970100402832,-1.9716858863830566
1771038425807866400,23.833866455078127,1.6510475873947144,2.5938198566436768,-0.3397808074951172
1771038425826833700,23.852833740234374,2.416750907897949,2.9288148880004883,-0.9906286001205444
1771038425845801000,23.871801025390624,2.7661030292510986,2.9766714572906494,-1.8759729862213135
1771038425864768300,23.890768310546875,2.2444677352905273,3.6945180892944336,-1.832902193069458
1771038425883735600,23.909735595703125,2.531606435775757,4.713860511779785,-2.517249345779419
1771038425902702800,23.928702880859376,3.0580272674560547,5.163711071014404,-4.000799655914307
1771038425921670100,23.947670166015627,3.603590965270996,5.556134223937988,-4.244867324829102
1771038425940637200,23.96663720703125,4.369294166564941,6.159125328063965,-3.895515203475952
1771038425959604500,23.9856044921875,4.713860511779785,6.661618232727051,-3.053241729736328
1771038425978571800,24.00457177734375,4.287938117980957,7.6043901443481445,-2.2301106452941895
1771038425997539000,24.0235390625,3.704089403152466,8.551948547363281,-2.555534601211548
1771038426016506400,24.04250634765625,3.6227335929870605,8.642875671386719,-4.8574299812316895
1771038426035473700,24.0614736328125,4.957928657531738,8.504091262817383,-7.0923261642456055
1771038426054441000,24.08044091796875,6.728617191314697,8.126026153564453,-6.876972198486328
1771038426073408000,24.099407958984376,7.149754047393799,8.312665939331055,-4.225724697113037
1771038426092375300,24.118375244140626,6.680760860443115,8.173882484436035,-2.7086751461029053
1771038426111342600,24.137342529296873,5.283352375030518,9.518648147583008,-0.6795616149902344
1771038426130310000,24.156309814453124,5.637490272521973,9.877572059631348,-2.3880369663238525
1771038426149277200,24.175277099609374,7.752745151519775,9.394221305847168,-6.192625045776367
1771038426168244500,24.194244384765625,8.523234367370605,9.260223388671875,-6.082555294036865
1771038426187211800,24.213211669921876,6.97268533706665,8.786444664001465,-4.967499732971191
1771038426206178800,24.2321787109375,5.3455657958984375,7.020541667938232,-3.7184464931488037
1771038426225146000,24.25114599609375,3.2207393646240234,5.422136306762695,-3.517449378967285
1771038426244113400,24.270113525390624,3.014956474304199,3.9912281036376953,-3.5365917682647705
1771038426263080700,24.289080810546874,3.665804386138916,3.4408788681030273,-2.258824586868286
1771038426282048000,24.308048095703125,4.287938117980957,3.5748770236968994,-0.3158525824546814
1771038426301015000,24.32701513671875,4.206582069396973,3.5270206928253174,0.8566305041313171
1771038426319982300,24.345982421875,4.445864677429199,3.7088751792907715,1.3399807214736938
1771038426338949600,24.36494970703125,4.584648132324219,3.90987229347229,1.0528420209884644
1771038426357917000,24.3839169921875,3.88594388961792,4.417150497436523,0.05742774158716202
1771038426376884200,24.40288427734375,3.7663028240203857,4.426722049713135,-1.8472590446472168
1771038426395851300,24.421851318359376,3.5126636028289795,4.40757942199707,-2.8905298709869385
1771038426414818600,24.440818603515623,3.053241729736328,4.187439441680908,-2.478964328765869
1771038426433785900,24.459785888671874,2.4598217010498047,3.4121651649475098,-2.1583259105682373
