time,seconds_elapsed,z,y,x
1770950686259931600,0.190931640625,6.807580471038818,3.572484254837036,-0.3206382393836975
1770950686278898700,0.209898681640625,6.812366008758545,3.9912281036376953,-0.4163511395454407
1770950686297865700,0.22886572265625,7.293323516845703,3.9529430866241455,-0.5335994362831116
1770950686316832800,0.247832763671875,7.719245910644531,3.8261234760284424,-0.7154539823532104
1770950686335799800,0.2667998046875,7.846065521240234,3.9314076900482178,-0.9116654396057129
1770950686354766800,0.285766845703125,7.726424217224121,4.175475597381592,-1.1054840087890625
1770950686373734000,0.30473388671875,7.611568927764893,4.453042984008789,-1.2897313833236694
1770950686392701000,0.323700927734375,8.518448829650879,4.589433670043945,-1.2490534782409668
1770950686411668000,0.34266796875,9.037691116333008,4.615755081176758,-1.2634103298187256
1770950686430635000,0.361635009765625,8.798408508300781,4.7401814460754395,-1.495514154434204
1770950686449602300,0.380602294921875,8.702695846557617,4.625326156616211,-1.9046868085861206
1770950686468569300,0.3995693359375,8.96112060546875,4.338187217712402,-2.4263222217559814
1770950686487536000,0.4185361328125,9.549755096435547,4.323830604553223,-2.6368906497955322
1770950686506503400,0.43750341796875,10.607382774353027,4.524827480316162,-2.3186452388763428
1770950686525470500,0.456470458984375,11.80618667602539,4.60139799118042,-2.1367905139923096
1770950686544437500,0.4754375,11.440085411071777,4.185046672821045,-2.531606435775757
1770950686563404500,0.494404541015625,10.279565811157227,3.82373046875,-3.1130621433258057
1770950686582371600,0.51337158203125,10.021141052246094,3.517449378967285,-4.1730828285217285
1770950686601338600,0.532338623046875,10.96630573272705,2.620140790939331,-4.945964336395264
1770950686620305700,0.5513056640625,12.181859970092773,1.5912270545959473,-4.522434711456299
1770950686639272700,0.570272705078125,12.05504035949707,1.581655740737915,-3.8117663860321045
1770950686658239700,0.58923974609375,9.872786521911621,2.7110681533813477,-2.8115665912628174
1770950686677206800,0.608206787109375,7.903493404388428,4.005585193634033,-2.5770699977874756
1770950686696173800,0.627173828125,7.795815944671631,4.249652862548828,-2.093719720840454
1770950686715140900,0.646140869140625,9.056833267211914,3.5916268825531006,-2.5052852630615234
1770950686734108000,0.66510791015625,10.265209197998047,2.4574289321899414,-2.124826431274414
1770950686753075000,0.684074951171875,10.985448837280273,1.6247265338897705,-1.5553346872329712
1770950686772042000,0.7030419921875,9.927821159362793,1.5601203441619873,-0.8398807644844055
1770950686791009300,0.72200927734375,7.676175117492676,1.8903298377990723,-0.6939185857772827
1770950686809976300,0.740976318359375,6.049055576324463,2.297109842300415,-0.6819544434547424
1770950686828943000,0.759943115234375,6.321837425231934,2.304288148880005,-0.5359922647476196
1770950686847910100,0.77891015625,7.03489875793457,2.368894338607788,-0.031106693670153618
1770950686866877400,0.79787744140625,6.561119556427002,2.933600664138794,0.17946170270442963
1770950686885844500,0.816844482421875,5.170889854431152,3.4672000408172607,-0.05024927482008934
1770950686904811500,0.8358115234375,5.19242525100708,2.981456995010376,-0.4378865361213684
1770950686923778600,0.854778564453125,7.159325122833252,2.4335005283355713,-1.6271194219589233
1770950686942745600,0.87374560546875,8.233702659606934,2.957528829574585,-1.9453648328781128
1770950686961712600,0.892712646484375,8.496912956237793,3.7112679481506348,-0.7920243144035339
1770950686980679700,0.9116796875,8.834300994873047,4.460221290588379,0.4713860750198364
1770950686999646700,0.930646728515625,8.264809608459473,4.656432628631592,1.4691931009292603
1770950687018613800,0.94961376953125,8.693124771118164,5.563312530517578,2.1990039348602295
1770950687037580800,0.968580810546875,9.34157943725586,5.37906551361084,1.8855443000793457
1770950687056547800,0.9875478515625,9.44447135925293,4.553541660308838,1.6773686408996582
1770950687075515000,1.006514892578125,10.358529090881348,3.6993038654327393,2.4358935356140137
1770950687094482000,1.02548193359375,11.452049255371094,3.5509488582611084,2.3880369663238525
1770950687113449000,1.044448974609375,10.932806968688965,4.3070807456970215,2.857030153274536
1770950687132416300,1.063416259765625,10.894521713256836,4.833501815795898,2.9455647468566895
1770950687151383300,1.08238330078125,10.770094871520996,4.453042984008789,3.0652058124542236
1770950687170350000,1.10135009765625,10.490134239196777,4.115654945373535,2.775674343109131
1770950687189317400,1.1203173828125,10.736595153808594,3.6993038654327393,3.081955671310425
1770950687208284400,1.139284423828125,11.952149391174316,3.2231321334838867,4.156332969665527
1770950687227251500,1.15825146484375,12.162717819213867,2.8809585571289062,4.249652862548828
1770950687246218500,1.177218505859375,10.937592506408691,2.5148565769195557,3.342773199081421
1770950687265185500,1.196185546875,9.121439933776855,2.210968017578125,3.050848960876465
1770950687284152600,1.215152587890625,8.008777618408203,2.5698914527893066,3.005385160446167
1770950687303119600,1.23411962890625,8.003992080688477,3.28773832321167,2.493321180343628
1770950687322086700,1.253086669921875,8.346165657043457,3.19441819190979,2.3090739250183105
1770950687341053700,1.2720537109375,8.439485549926758,3.2039895057678223,2.148754835128784
1770950687360020700,1.291020751953125,7.621140003204346,3.187239646911621,1.6893328428268433
1770950687378988000,1.309988037109375,6.376872539520264,3.3714871406555176,1.3543375730514526
1770950687397955000,1.328955078125,5.917450428009033,3.3571300506591797,1.0193424224853516
1770950687416921900,1.347921875,6.271588325500488,3.3858439922332764,0.6580262184143066
1770950687435889200,1.36688916015625,7.144968509674072,3.4265220165252686,0.7393822073936462
1770950687464339700,1.395339599609375,7.743174076080322,3.7399818897247314,0.9332008361816406
1770950687483306800,1.414306640625,7.798209190368652,4.022335052490234,0.8063812255859375
1770950687502273800,1.433273681640625,7.501499176025391,4.488935470581055,0.6460621356964111
1770950687521240800,1.45224072265625,7.496713161468506,4.460221290588379,0.3206382393836975
1770950687540207900,1.471207763671875,7.939385414123535,4.445864677429199,0.19381862878799438
1770950687559175000,1.4901748046875,8.23130989074707,4.443471431732178,-0.0526420995593071
1770950687578142200,1.50914208984375,8.707481384277344,4.366901397705078,-0.1818545162677765
1770950687597109200,1.528109130859375,9.626325607299805,4.503292083740234,-0.12442677468061447
1770950687616076300,1.547076171875,9.906285285949707,4.610969066619873,0.2153540402650833
1770950687635043300,1.566043212890625,10.425528526306152,4.632504463195801,0.07178468257188797
1770950687654010400,1.58501025390625,10.02592658996582,5.190032482147217,-0.18903298676013947
1770950687672977400,1.603977294921875,9.851250648498535,5.723631858825684,0.07417750358581543
1770950687691944400,1.6229443359375,10.935199737548828,5.099104881286621,0.19142581522464752
1770950687710911500,1.641911376953125,12.930813789367676,3.469592809677124,-0.10767702013254166
1770950687729878500,1.66087841796875,14.189437866210938,2.3330020904541016,-0.6939185857772827
1770950687748845600,1.679845458984375,11.521441459655762,2.7397818565368652,-0.8398807644844055
1770950687767812600,1.6988125,9.121439933776855,3.665804386138916,-1.0169496536254883
1770950687786780000,1.71777978515625,8.903693199157715,3.541377544403076,-1.246660590171814
1770950687805747000,1.736746826171875,10.030712127685547,2.823530673980713,-0.5455635786056519
1770950687824714000,1.7557138671875,10.693524360656738,2.68953275680542,0.5072783827781677
1770950687843681000,1.774680908203125,10.511670112609863,2.8139593601226807,1.332802176475525
1770950687862648000,1.79364794921875,9.221938133239746,3.0412776470184326,1.730010747909546
1770950687881615000,1.812614990234375,7.482356548309326,3.0029923915863037,1.5960127115249634
1770950687900582400,1.83158251953125,6.6831536293029785,3.067598581314087,1.2801600694656372
1770950687919549200,1.850549072265625,5.8959150314331055,3.129812002182007,1.2658032178878784
1770950687938516500,1.8695166015625,5.367101192474365,3.1345977783203125,0.8063812255859375
1770950687957483500,1.8884833984375,5.398207664489746,3.342773199081421,0.5168496966362
1770950687976450600,1.907450439453125,5.391029357910156,3.538984775543213,0.9810572862625122
1770950687995417600,1.92641748046875,5.8337016105651855,3.8356947898864746,1.2705888748168945
1770950688014384600,1.945384521484375,6.5419769287109375,3.864408493041992,1.275374412536621
1770950688033351700,1.9643515625,7.386643409729004,3.7495529651641846,1.4141582250595093
1770950688052319000,1.983319091796875,7.886743545532227,3.9696927070617676,1.588834285736084
1770950688071286000,2.0022861328125,8.171489715576172,4.240081787109375,1.7084753513336182
1770950688090253000,2.021253173828125,8.307880401611328,4.426722049713135,1.7539390325546265
1770950688109220000,2.04022021484375,8.429914474487305,4.859822750091553,1.9956140518188477
1770950688128187100,2.059187255859375,8.609375953674316,4.845465660095215,2.2085752487182617
1770950688147154200,2.078154296875,9.245866775512695,4.603790760040283,2.3090739250183105
1770950688166121500,2.09712158203125,9.645467758178711,4.455435752868652,1.9286150932312012
1770950688185088500,2.116088623046875,9.717252731323242,4.709074974060059,2.1104695796966553
1770950688204055600,2.1350556640625,10.363314628601074,4.634897232055664,2.4526431560516357
1770950688223022600,2.154022705078125,11.085947036743164,4.761716842651367,2.400001049041748
1770950688241989600,2.17298974609375,11.011770248413086,4.335794448852539,2.878565549850464
1770950688260956700,2.191956787109375,12.023933410644531,3.373879909515381,3.4408788681030273
1770950688279924000,2.210924072265625,13.481163024902344,2.550748825073242,3.82373046875
1770950688298891000,2.22989111328125,13.607982635498047,2.0961127281188965,3.864408493041992
1770950688317858000,2.248858154296875,11.736795425415039,2.258824586868286,3.460021495819092
1770950688336825000,2.2678251953125,9.525827407836914,2.7086751461029053,3.3690943717956543
1770950688355792100,2.286792236328125,7.781459331512451,3.2781670093536377,3.2781670093536377
1770950688374759200,2.30575927734375,6.754938125610352,3.641875982284546,3.239881753921509
1770950688393726500,2.3247265625,6.908079147338867,3.570091485977173,2.861815929412842
1770950688412693500,2.343693603515625,7.506284713745117,3.084348440170288,2.2205393314361572
1770950688431660500,2.36266064453125,7.6666035652160645,2.830709218978882,1.4620146751403809
1770950688450627600,2.381627685546875,7.214360237121582,2.943171739578247,1.2059825658798218
1770950688469595000,2.400594970703125,6.647261142730713,3.136990547180176,1.0193424224853516
1770950688488562000,2.41956201171875,6.558726787567139,3.146561861038208,0.6245267391204834
1770950688507529000,2.438529052734375,6.721438884735107,3.342773199081421,0.2871387302875519
1770950688526496000,2.45749609375,7.118647575378418,3.483949661254883,0.3158525824546814
1770950688545463000,2.476463134765625,7.630711555480957,3.625126361846924,0.15314064919948578
1770950688564430000,2.49543017578125,7.762316703796387,3.9744784832000732,0.1579262912273407
1770950688583397400,2.5143974609375,7.7216386795043945,4.340580463409424,0.20578274130821228
1770950688602364400,2.533364501953125,7.88913631439209,4.534399032592773,0.1866401731967926
1770950688621331500,2.55233154296875,8.322237014770508,4.666004180908203,0.11724831163883209
1770950688640298800,2.571298828125,8.855836868286133,4.5200419425964355,-0.11724831163883209
1770950688659265800,2.590265869140625,9.31047248840332,4.395615100860596,-0.31106695532798767
1770950688678232800,2.60923291015625,9.643074989318848,4.541577339172363,-0.24885354936122894
1770950688697199900,2.628199951171875,9.796216011047363,4.742574691772461,0.11724831163883209
1770950688716167200,2.647167236328125,10.243673324584961,5.190032482147217,0.2105683982372284
1770950688735134200,2.66613427734375,10.176674842834473,5.2737812995910645,0.2799602448940277
1770950688754101200,2.685101318359375,11.444870948791504,5.06082010269165,0.2584248483181
1770950688773068500,2.704068603515625,12.940384864807129,4.077369689941406,0.349352091550827
1770950688792035600,2.72303564453125,14.301900863647461,2.809173822402954,-0.11485548317432404
1770950688811002600,2.742002685546875,14.983855247497559,1.6223337650299072,-0.7824530005455017
1770950688829969700,2.7609697265625,12.689138412475586,1.7419748306274414,-1.3184453248977661
1770950688848937000,2.77993701171875,9.372686386108398,2.550748825073242,-1.5385849475860596
1770950688867904000,2.798904052734375,8.34138011932373,2.9623143672943115,-1.3567304611206055
1770950688886871000,2.81787109375,9.128618240356445,2.7038896083831787,-0.9978070259094238
1770950688905838000,2.836838134765625,9.286544799804688,2.6297121047973633,-0.34695929288864136
1770950688924805400,2.855805419921875,9.281759262084961,2.5914268493652344,0.5575276613235474
1770950688943772400,2.8747724609375,8.858229637145996,2.799602508544922,1.0121639966964722
1770950688962739500,2.893739501953125,8.14516830444336,2.6560330390930176,0.7010970115661621
1770950688981706800,2.912706787109375,7.41535758972168,2.612962245941162,-0.038285162299871445
1770950689000673800,2.931673828125,6.561119556427002,2.8737800121307373,0.08374879509210587
1770950689019640800,2.950640869140625,5.795416355133057,2.991028308868408,-0.5886343717575073
1770950689038608100,2.969608154296875,6.192625045776367,2.2396819591522217,0.19142581522464752
1770950689057575200,2.9885751953125,7.238288402557373,2.651247501373291,-0.01196411345154047
1770950689076542200,3.007542236328125,7.767102241516113,2.8115665912628174,0.1052841991186142
1770950689095509200,3.02650927734375,8.398807525634766,2.5698914527893066,0.30149564146995544
1770950689114476500,3.0454765625,9.45164966583252,2.5986053943634033,0.24406790733337402
1770950689133443600,3.064443603515625,9.248259544372559,3.136990547180176,0.37088751792907715
1770950689152410600,3.08341064453125,8.666803359985352,3.541377544403076,0.31106695532798767
1770950689171378000,3.1023779296875,8.343772888183594,3.830909013748169,0.1986042857170105
1770950689190345000,3.121344970703125,8.09252643585205,4.278367042541504,0.1818545162677765
1770950689209312000,3.14031201171875,7.917850017547607,4.78803825378418,0.4570291340351105
1770950689228279300,3.159279296875,7.7838521003723145,5.288137912750244,0.8303094506263733
1770950689247246300,3.178246337890625,8.72183895111084,4.974678039550781,1.1150553226470947
1770950689266213600,3.197213623046875,9.750752449035645,4.625326156616211,1.2729816436767578
1770950689285180700,3.2161806640625,10.494919776916504,4.333401679992676,1.1940184831619263
1770950689304147700,3.235147705078125,11.155339241027832,4.024727821350098,1.2729816436767578
1770950689323115000,3.254114990234375,11.380264282226562,4.122833251953125,1.2538390159606934
1770950689342082000,3.27308203125,10.746166229248047,3.9912281036376953,1.031306505203247
1770950689361049000,3.292049072265625,10.674382209777832,3.6394832134246826,1.28255295753479
1770950689380016400,3.311016357421875,12.138789176940918,3.0891339778900146,1.7802600860595703
1770950689398983400,3.3299833984375,12.830314636230469,2.7876384258270264,2.242074728012085
1770950689417950700,3.34895068359375,11.58843994140625,3.0795626640319824,2.612962245941162
1770950689436917800,3.367917724609375,10.009177207946777,3.2542388439178467,2.5292134284973145
1770950689455884800,3.386884765625,8.774480819702148,3.2829527854919434,2.4574289321899414
1770950689474852000,3.40585205078125,7.707281589508057,3.5270206928253174,2.4765713214874268
1770950689493819100,3.424819091796875,7.240681171417236,3.5605201721191406,2.431107759475708
1770950689512786200,3.4437861328125,7.2430739402771,3.5054850578308105,2.1678972244262695
1770950689531753500,3.46275341796875,7.211967468261719,3.436093330383301,1.7730815410614014
1770950689550720500,3.481720458984375,6.766902446746826,3.1441688537597656,1.2921242713928223
1770950689569687800,3.500687744140625,6.489335060119629,3.201596736907959,1.0265209674835205
1770950689588654800,3.51965478515625,6.230910301208496,3.242274761199951,0.7058826684951782
1770950689607622000,3.538621826171875,6.0466628074646,3.4887354373931885,0.2273181527853012
1770950689626589200,3.557589111328125,6.252445697784424,3.6873397827148438,0.39481574296951294
1770950689645556200,3.57655615234375,6.642475605010986,3.7950167655944824,0.3924229145050049
1770950689664523500,3.5955234375,7.324429988861084,3.656233072280884,0.07896314561367035
1770950689683490600,3.614490478515625,7.8795647621154785,3.7806596755981445,0.035892341285943985
1770950689702457600,3.63345751953125,8.078168869018555,4.254438877105713,0.09571290761232376
1770950689721425000,3.6524248046875,7.968099594116211,4.376472473144531,-0.44745782017707825
1770950689740392200,3.67139208984375,8.250452041625977,4.254438877105713,-1.3040883541107178
1770950689759359200,3.690359130859375,8.504091262817383,4.338187217712402,-1.098305583000183
1770950689778326300,3.709326171875,8.616554260253906,4.503292083740234,-1.1341979503631592
1770950689797293600,3.72829345703125,8.48016357421875,4.40757942199707,-0.9810572862625122
1770950689816260600,3.747260498046875,9.585647583007812,4.40757942199707,-0.4785645306110382
1770950689835228000,3.766227783203125,10.279565811157227,4.656432628631592,0.13639089465141296
1770950689854195000,3.78519482421875,10.119247436523438,4.3788652420043945,0.3038884699344635
1770950689873162000,3.804161865234375,10.569097518920898,4.18983268737793,-0.08374879509210587
1770950689892129300,3.82312939453125,10.559526443481445,3.565305709838867,-0.16749759018421173
1770950689911096600,3.8420966796875,10.839486122131348,0.9619147181510925,1.6893328428268433
1770950689930063600,3.861063720703125,9.89432144165039,0.31106695532798767,-0.4426721930503845
1770950689949030700,3.88003076171875,11.49512004852295,-0.18424734473228455,-2.5220351219177246
1770950689967998000,3.898998046875,11.033305168151855,-1.8352949619293213,-2.251646041870117
1770950689986965000,3.917965087890625,10.351350784301758,-1.6151553392410278,-3.759124279022217
1770950690005932300,3.936932373046875,9.968499183654785,-1.155733346939087,-2.3401806354522705
1770950690024899300,3.9558994140625,10.511670112609863,-0.9308080077171326,0.05024927482008934
1770950690043866600,3.97486669921875,11.609975814819336,-0.6843472719192505,0.9260223507881165
1770950690062833700,3.993833740234375,11.854043006896973,-1.0121639966964722,0.23449662327766418
1770950690081801000,4.012801025390625,10.753344535827637,-1.3160524368286133,-1.0815558433532715
1770950690100768000,4.03176806640625,9.69093132019043,-1.2083754539489746,-1.8903298377990723
1770950690119735300,4.0507353515625,8.087740898132324,-1.3926228284835815,-1.550549030303955
1770950690138702300,4.069702392578125,6.135197162628174,-0.8039883971214294,-1.4787644147872925
1770950690157669600,4.088669677734375,3.8596229553222656,0.5479564070701599,-0.8973084688186646
1770950690176636700,4.10763671875,5.374279499053955,1.4931213855743408,-0.40677985548973083
1770950690195604000,4.12660400390625,5.091926574707031,0.973878800868988,-0.3445664644241333
1770950690214571000,4.145571044921875,6.235695838928223,0.48813581466674805,-1.31365966796875
1770950690233538300,4.164538330078125,7.188039302825928,0.25363919138908386,-1.5912270545959473
1770950690252505300,4.18350537109375,9.33440113067627,-0.08853443711996078,-2.093719720840454
1770950690271472600,4.20247265625,8.669196128845215,-1.911865234375,-1.210768222808838
1770950690290441500,4.22144140625,1.9836499691009521,-1.7060825824737549,-1.794616937637329
1770950690309407000,4.240406982421875,1.9405791759490967,-0.7657032608985901,-1.923829436302185
1770950690328374000,4.2593740234375,6.214160442352295,-1.8496519327163696,-2.526820659637451
1770950690347341300,4.27834130859375,7.269395351409912,-3.098705291748047,-2.6727828979492188
1770950690366308400,4.297308349609375,7.860422611236572,-2.053041934967041,-3.3403804302215576
1770950690385275600,4.316275634765625,8.185846328735352,-4.512863636016846,-1.454836130142212
1770950690404242700,4.33524267578125,6.963113784790039,-4.692325115203857,-3.359523057937622
1770950690432693500,4.363693603515625,5.027320384979248,-9.432506561279297,-5.670989513397217
1770950690451660500,4.38266064453125,5.053641319274902,-9.116654396057129,-7.451249599456787
1770950690469592800,4.4005927734375,7.752745151519775,-11.112268447875977,-7.685746192932129
1770950690488559900,4.419559814453125,7.690532207489014,-12.394821166992188,-8.623732566833496
1770950690507527200,4.438527099609375,7.09711217880249,-13.093525886535645,-9.28893756866455
1770950690526494200,4.457494140625,8.63330364227295,-11.408978462219238,-9.834501266479492
1770950690545461500,4.47646142578125,11.538190841674805,-9.882357597351074,-10.74855899810791
1770950690564428500,4.495428466796875,11.279766082763672,-8.417949676513672,-11.562119483947754
1770950690583395800,4.514395751953125,9.93978500366211,-6.656832695007324,-11.241480827331543
1770950690602363100,4.533363037109375,9.221938133239746,-4.536791801452637,-10.96869945526123
1770950690621330200,4.552330078125,8.752944946289062,-4.168296813964844,-11.997612953186035
1770950690640297500,4.57129736328125,7.4225358963012695,-4.101297855377197,-12.595818519592285
1770950690659264500,4.590264404296875,6.853044033050537,-0.7178468108177185,-12.246466636657715
1770950690678231800,4.609231689453125,5.647061347961426,-1.2969099283218384,-10.853843688964844
1770950690697198800,4.62819873046875,4.211368083953857,-0.16271193325519562,-10.207781791687012
1770950690716166100,4.647166259765625,7.982456207275391,-1.0815558433532715,-11.22233772277832
1770950690735133200,4.66613330078125,9.45164966583252,-0.32542386651039124,-9.80100154876709
1770950690763584000,4.694583984375,7.5565338134765625,-0.9523434042930603,-8.394021987915039
1770950690782551300,4.71355126953125,7.872386455535889,-1.4739787578582764,-8.60459041595459
1770950690801518300,4.732518310546875,5.699703693389893,-2.517249345779419,-7.9968132972717285
1770950690820485600,4.751485595703125,3.153740167617798,-3.589233875274658,-8.662017822265625
1770950690839453000,4.770452880859375,0.03349951654672623,-7.77188777923584,-16.27597999572754
1770950690858420000,4.789419921875,1.0528420209884644,-9.126225471496582,-13.548161506652832
1770950690877387300,4.80838720703125,7.412964344024658,-3.809373617172241,-11.212766647338867
1770950690896354300,4.827354248046875,8.738588333129883,-1.5553346872329712,-5.168497085571289
1770950690915321600,4.846321533203125,3.153740167617798,-2.148754835128784,-7.36032247543335
1770950690934288600,4.86528857421875,-7.843672752380371,-7.814958572387695,-11.47119140625
1770950690953256000,4.884255859375,-10.729416847229004,-11.13619613647461,-10.336994171142578
1770950690972223200,4.90322314453125,1.550549030303955,-9.437292098999023,-12.346964836120605
1770950690991190300,4.922190185546875,4.627718925476074,-9.111868858337402,-9.035298347473145
1770950691010157600,4.941157470703125,0.6173482537269592,-7.5326056480407715,-4.6372904777526855
1770950691029124900,4.960124755859375,0.5072783827781677,-6.92482852935791,-3.3547372817993164
1770950691048092000,4.979091796875,-2.3641088008880615,-5.804987907409668,-4.800002098083496
1770950691067059200,4.99805908203125,-2.2683959007263184,-4.8191447257995605,-4.46979284286499
1770950691086026200,5.017026123046875,0.6269195079803467,-4.752145767211914,-8.154739379882812
1770950691104993500,5.03599365234375,0.6269195079803467,-4.847858905792236,-8.394021987915039
1770950691123960600,5.054960693359375,0.2105683982372284,-3.617947816848755,-7.039684295654297
1770950691142928000,5.073927978515625,-0.08135596662759781,-2.4358935356140137,-5.532206058502197
1770950691161895200,5.092895263671875,-0.32542386651039124,-2.4358935356140137,-4.364508628845215
1770950691180862200,5.1118623046875,2.6560330390930176,-1.5792629718780518,-2.2636101245880127
1770950691199829500,5.13082958984375,2.2683959007263184,-2.4981069564819336,-2.124826431274414
1770950691218796500,5.149796630859375,-2.5746772289276123,-5.398207664489746,-4.512863636016846
1770950691237763800,5.168763916015625,-2.957528829574585,-7.5708909034729,-7.3986077308654785
1770950691256731100,5.187731201171875,2.0961127281188965,-6.16391134262085,-7.8628153800964355
1770950691275698400,5.206698486328125,4.048655986785889,-4.756931304931641,-7.944170951843262
1770950691294665500,5.22566552734375,0.07178468257188797,-3.665804386138916,-5.819344520568848
1770950691313632800,5.2446328125,3.1489546298980713,-5.7619171142578125,-4.919643402099609
1770950691332599800,5.263599853515625,0.3397808074951172,-7.752745151519775,-4.254438877105713
1770950691351567000,5.282567138671875,3.0388846397399902,-11.72004508972168,-4.019941806793213
1770950691370534400,5.301534423828125,3.053241729736328,-10.212567329406738,-3.665804386138916
1770950691389501400,5.32050146484375,1.1054840087890625,-6.3601226806640625,-4.59421968460083
1770950691408468700,5.33946875,-3.7423746585845947,-6.288337707519531,-4.42193603515625
1770950691427436000,5.35843603515625,-5.85284423828125,-10.715060234069824,-4.450650215148926
1770950691446403000,5.377403076171875,-2.8043880462646484,-15.783058166503906,-5.7858452796936035
1770950691465370400,5.396370361328125,10.987841606140137,-20.50649070739746,-5.3216376304626465
1770950691484337700,5.415337646484375,11.734402656555176,-17.931812286376953,-2.7038896083831787
1770950691503305000,5.434304931640625,6.005984783172607,-14.36172103881836,-3.1728827953338623
1770950691522272000,5.45327197265625,-4.125226020812988,-11.47119140625,-1.6223337650299072
1770950691541239300,5.4722392578125,0.5982056856155396,-13.083953857421875,-2.5986053943634033
1770950691560206300,5.491206298828125,2.713460922241211,-20.047067642211914,-0.4019941985607147
1770950691579173600,5.510173583984375,0.9858429431915283,-18.563518524169922,5.264209747314453
1770950691598141000,5.529140869140625,1.6079767942428589,-16.189838409423828,4.618147850036621
1770950691617108200,5.548108154296875,-2.043470621109009,-14.36172103881836,0.09571290761232376
1770950691636075300,5.5670751953125,-1.9286150932312012,-12.815958023071289,0.8422735929489136
1770950691655042600,5.58604248046875,1.6941183805465698,-13.069597244262695,3.28773832321167
1770950691674009900,5.605009765625,0.1866401731967926,-11.93061351776123,3.8285162448883057
1770950691692977200,5.62397705078125,-2.258824586868286,-7.700103282928467,2.416750907897949
1770950691711944200,5.642944091796875,-0.7465606927871704,-4.575077056884766,1.9956140518188477
1770950691730911500,5.661911376953125,-1.550549030303955,-2.761317253112793,2.5698914527893066
1770950691749878800,5.680878662109375,-1.8376877307891846,-1.4739787578582764,3.4552359580993652
1770950691768846000,5.69984619140625,-0.5599204897880554,-0.8087740540504456,3.555734395980835
1770950691787813000,5.718813232421875,-0.38763725757598877,-0.8901300430297852,3.507878065109253
1770950691806780400,5.737780517578125,-1.373480200767517,-1.2299108505249023,3.6227335929870605
1770950691825747700,5.756747802734375,-2.1918256282806396,-1.7563318014144897,2.8283164501190186
1770950691844715000,5.775715087890625,-1.674975872039795,-2.7900311946868896,1.8664016723632812
1770950691863682300,5.794682373046875,0.11485548317432404,-3.656233072280884,2.1439690589904785
1770950691882649300,5.8136494140625,4.4650068283081055,-6.293123722076416,1.9812572002410889
1770950691901616600,5.83261669921875,19.745573043823242,-13.217952728271484,2.2683959007263184
1770950691920584000,5.851583984375,25.1485652923584,-32.508888244628906,-2.5076780319213867
1770950691939551200,5.87055126953125,3.570091485977173,-32.6046028137207,-3.383451223373413
1770950691958518300,5.889518310546875,5.13021183013916,-9.973284721374512,2.5124638080596924
1770950691977485600,5.908485595703125,5.450850009918213,-1.703689694404602,8.0350980758667
1770950691996452900,5.927452880859375,1.947757601737976,-2.5986053943634033,10.06421184539795
1770950692015420200,5.946420166015625,-3.3690943717956543,-10.667202949523926,7.944170951843262
1770950692034387500,5.965387451171875,-0.4450650215148926,-19.78864288330078,4.656432628631592
1770950692053354800,5.984354736328125,-5.441278457641602,-7.752745151519775,3.8668015003204346
1770950692072322000,6.003322021484375,-0.4163511395454407,-3.0963125228881836,3.067598581314087
1770950692091289000,6.0222890625,-0.1052841991186142,-4.130012035369873,4.996213912963867
1770950692110256400,6.04125634765625,-2.014756679534912,-5.063212871551514,7.101897716522217
1770950692129223700,6.0602236328125,-3.311666488647461,-6.226124286651611,7.04925537109375
1770950692148191000,6.07919091796875,-4.311866283416748,-8.37009334564209,6.441478729248047
1770950692167158300,6.098158203125,-7.09711217880249,-11.327622413635254,4.479363918304443
1770950692186125600,6.11712548828125,-4.321437835693359,-12.67717456817627,1.9812572002410889
1770950692205092600,6.136092529296875,2.1822543144226074,-14.088939666748047,-1.301695466041565
1770950692224060000,6.155059814453125,9.418149948120117,-14.199009895324707,-3.7088751792907715
1770950692243027200,6.174027099609375,3.115455150604248,-10.317851066589355,-2.919243574142456
1770950692261994500,6.192994384765625,-1.129412293434143,-8.930013656616211,2.4598217010498047
1770950692280961800,6.2119619140625,-1.5122638940811157,-8.312665939331055,4.077369689941406
1770950692299929000,6.23092919921875,-1.2394821643829346,-7.154539585113525,4.106083869934082
1770950692318896400,6.249896484375,-1.0767701864242554,-5.910272121429443,4.3788652420043945
1770950692337863700,6.26886376953125,0.4833501875400543,-6.154339790344238,4.977071285247803
1770950692356831000,6.2878310546875,1.9812572002410889,-8.188239097595215,4.642076015472412
1770950692375798300,6.30679833984375,2.062613010406494,-9.207581520080566,3.1920254230499268
1770950692394765600,6.325765625,1.8233308792114258,-9.954142570495605,1.7228323221206665
1770950692413732900,6.34473291015625,1.5840486288070679,-10.576275825500488,1.368694543838501
1770950692432700200,6.3637001953125,2.00518536567688,-10.892128944396973,0.8135597109794617
1770950692451667500,6.38266748046875,2.8761727809906006,-11.944971084594727,0.6364908218383789
1770950692470634800,6.401634765625,2.392822742462158,-12.265608787536621,-0.6460621356964111
1770950692489601800,6.420601806640625,-0.3397808074951172,-11.921042442321777,-1.9334007501602173
1770950692508569000,6.439569091796875,-1.6223337650299072,-11.667403221130371,-0.02392822690308094
1770950692527536400,6.458536376953125,0.8279166221618652,-12.882957458496094,2.0195422172546387
1770950692546503700,6.477503662109375,4.268795490264893,-13.931013107299805,2.699103832244873
1770950692565471000,6.496470947265625,4.359723091125488,-13.85922908782959,3.3308091163635254
1770950692584438300,6.515438232421875,2.383251428604126,-13.753944396972656,6.116054534912109
1770950692603405600,6.534405517578125,3.0963125228881836,-13.830514907836914,4.144368648529053
1770950692622372900,6.553372802734375,-0.16749759018421173,-13.864014625549316,6.900900363922119
1770950692641340200,6.572340087890625,-1.7419748306274414,-13.088739395141602,11.13619613647461
1770950692660307500,6.591307373046875,-2.555534601211548,-13.23709487915039,12.19382381439209
1770950692679274800,6.610274658203125,-2.4023938179016113,-11.59561824798584,10.068997383117676
1770950692698242000,6.629241943359375,-3.799802303314209,-10.03549861907959,5.8719868659973145
1770950692717209600,6.648209716796875,-3.2063822746276855,-10.06421184539795,2.9479575157165527
1770950692736177000,6.667177001953125,1.8807586431503296,-11.351551055908203,-0.6891329288482666
1770950692755144000,6.68614404296875,1.765903115272522,-13.146167755126953,-1.3639088869094849
1770950692774111500,6.705111572265625,-2.029113531112671,-9.456435203552246,1.9956140518188477
1770950692793078800,6.724078857421875,-1.5361921787261963,-6.149554252624512,2.6081767082214355
1770950692812046000,6.743046142578125,-1.7850457429885864,-3.6227335929870605,3.5605201721191406
1770950692831013400,6.762013427734375,-1.6031911373138428,-1.8903298377990723,4.268795490264893
1770950692849980700,6.780980712890625,-1.1102696657180786,-1.1724830865859985,4.417150497436523
1770950692868948000,6.799947998046875,-0.4450650215148926,-1.0289137363433838,4.843072891235352
1770950692887915300,6.818915283203125,-0.727418065071106,-0.7992027401924133,5.3694939613342285
1770950692906882600,6.837882568359375,-1.7802600860595703,-0.9475577473640442,4.9292144775390625
1770950692925849900,6.856849853515625,-1.588834285736084,-1.4021940231323242,3.981656789779663
1770950692944817200,6.875817138671875,-0.7752745151519775,-1.9046868085861206,3.8333017826080322
1770950692963784400,6.894784423828125,1.1724830865859985,-4.551148891448975,2.9527430534362793
1770950692982752000,6.913751953125,8.183453559875488,-10.50927734375,4.106083869934082
1770950693001719000,6.932718994140625,18.970298767089844,-24.201007843017578,2.1056840419769287
1770950693020686600,6.9516865234375,10.892128944396973,-31.867612838745117,-5.087141036987305
1770950693039654000,6.97065380859375,7.613961696624756,-18.692729949951172,-0.9044869542121887
1770950693058621200,6.98962109375,4.110869407653809,-7.70967435836792,5.982056617736816
1770950693077588500,7.00858837890625,-0.40677985548973083,-6.001199245452881,6.556334018707275
1770950693096555800,7.0275556640625,-5.737988471984863,-7.929814338684082,5.60399055480957
1770950693115523000,7.046523193359375,-4.575077056884766,-8.360522270202637,7.982456207275391
1770950693134490400,7.065490478515625,-0.885344386100769,-4.67078971862793,4.206582069396973
1770950693153458000,7.0844580078125,3.091526746749878,-6.087340831756592,3.0245277881622314
1770950693172425200,7.10342529296875,-1.7180466651916504,-7.977670669555664,5.848058700561523
1770950693191392500,7.122392578125,-2.258824586868286,-10.155138969421387,5.091926574707031
1770950693210359800,7.14135986328125,0.7417750358581543,-13.083953857421875,1.947757601737976
1770950693229327000,7.1603271484375,2.3497519493103027,-13.107882499694824,-0.0526420995593071
1770950693248294700,7.179294677734375,0.3924229145050049,-11.23190975189209,1.526620864868164
1770950693267262000,7.198261962890625,-0.2967100143432617,-10.504491806030273,2.833101987838745
1770950693286229200,7.217229248046875,0.38763725757598877,-9.556933403015137,3.383451223373413
1770950693305196500,7.236196533203125,0.8662018179893494,-8.135597229003906,2.967100143432617
1770950693324163800,7.255163818359375,0.9762716293334961,-6.747759819030762,2.3736801147460938
1770950693343131100,7.274131103515625,1.828116536140442,-6.51326322555542,1.703689694404602
1770950693362098700,7.2930986328125,2.847458839416504,-6.666403770446777,1.4404792785644531
1770950693390549500,7.321549560546875,2.651247501373291,-8.317451477050781,1.100698471069336
1770950693409517000,7.34051708984375,3.067598581314087,-9.107083320617676,1.397408366203308
1770950693428484400,7.359484375,3.2542388439178467,-8.614161491394043,0.8997012972831726
1770950693447451600,7.37845166015625,2.297109842300415,-7.216753005981445,0.6939185857772827
1770950693466419000,7.3974189453125,0.24406790733337402,-5.694917678833008,1.1198409795761108
1770950693485386200,7.41638623046875,0.3397808074951172,-6.771687984466553,0.760917603969574
1770950693504353800,7.435353759765625,1.5409778356552124,-8.800801277160645,0.7082754969596863
1770950693523321000,7.454321044921875,2.2683959007263184,-8.58066177368164,1.2203395366668701
1770950693542288400,7.473288330078125,2.076970100402832,-6.63769006729126,1.5649060010910034
1770950693561255700,7.492255615234375,1.215553879737854,-5.359922885894775,1.6079767942428589
1770950693580223200,7.51122314453125,0.7657032608985901,-5.522634506225586,1.770688772201538
1770950693599190500,7.5301904296875,0.9379864931106567,-8.547162055969238,1.2586246728897095
1770950693618157800,7.54915771484375,3.799802303314209,-11.203195571899414,0.14356936514377594
1770950693637125400,7.56812548828125,7.977670669555664,-12.815958023071289,-1.1150553226470947
1770950693656092700,7.5870927734375,9.169296264648438,-14.979069709777832,0.5168496966362
1770950693675060000,7.60606005859375,6.484549522399902,-16.285551071166992,4.417150497436523
1770950693694027300,7.62502734375,5.60399055480957,-19.721643447875977,5.163711071014404
1770950693712994800,7.643994873046875,0.5790630578994751,-21.348764419555664,7.781459331512451
1770950693731962000,7.662962158203125,-0.5072783827781677,-20.7840576171875,8.695517539978027
1770950693750929400,7.681929443359375,2.5938198566436768,-16.007984161376953,5.9198431968688965
1770950693769896700,7.700896728515625,1.7802600860595703,-7.814958572387695,6.197410583496094
1770950693788864300,7.7198642578125,2.8283164501190186,-2.857030153274536,5.565705299377441
1770950693807831600,7.73883154296875,2.943171739578247,-1.9525432586669922,5.106283664703369
1770950693826798800,7.757798828125,1.4787644147872925,-3.153740167617798,3.8189449310302734
1770950693845766400,7.776766357421875,0.5886343717575073,-4.278367042541504,2.4741785526275635
1770950693864733700,7.795733642578125,-0.019142581149935722,-3.077169895172119,2.0003998279571533
1770950693883701000,7.814700927734375,-0.17228323221206665,-1.947757601737976,2.0817556381225586
1770950693902668500,7.83366845703125,-0.1866401731967926,-2.0865414142608643,2.6273193359375
1770950693921635800,7.8526357421875,-0.11006984114646912,-2.1583259105682373,2.7182464599609375
1770950693940603100,7.87160302734375,0.23449662327766418,-1.5792629718780518,2.9144580364227295
1770950693959570700,7.89057080078125,0.2727817893028259,-1.1102696657180786,2.531606435775757
1770950693978538000,7.9095380859375,-0.0526420995593071,-1.1676974296569824,1.7084753513336182
1770950693997505300,7.92850537109375,-0.5407779216766357,-3.8668015003204346,0.4737788736820221
1770950694016472800,7.947472900390625,0.8805587291717529,-13.76351547241211,-0.4307080805301666
1770950694035440000,7.966440185546875,6.685546398162842,-19.233509063720703,2.9144580364227295
1770950694054407400,7.985407470703125,10.939985275268555,-14.079368591308594,3.2350962162017822
1770950694073375000,8.004375,10.356136322021484,-9.978070259094238,4.46979284286499
1770950694092342300,8.02334228515625,9.748359680175781,-7.231110095977783,7.451249599456787
1770950694111309600,8.0423095703125,-1.2299108505249023,-8.350951194763184,6.245266914367676
1770950694130277000,8.061277099609375,-4.828716278076172,-10.839486122131348,7.8388872146606445
1770950694149244400,8.080244384765624,-6.211767673492432,-13.036097526550293,9.389435768127441
1770950694168211700,8.099211669921875,3.6945180892944336,-16.299907684326172,5.182853698730469
1770950694187179300,8.11817919921875,23.607587814331055,-24.803998947143555,2.68953275680542
1770950694206146600,8.137146484375,2.172683000564575,-21.664615631103516,2.5220351219177246
1770950694225114000,8.156114013671875,-5.752345561981201,-7.341179847717285,4.019941806793213
1770950694244081400,8.175081298828125,-5.063212871551514,-5.450850009918213,3.7088751792907715
1770950694263048700,8.194048583984374,-5.891129493713379,-7.188039302825928,4.393222332000732
1770950694282016300,8.213016357421875,-2.775674343109131,-12.232109069824219,4.383651256561279
1770950694300983600,8.231983642578125,3.8907296657562256,-12.988241195678711,3.7423746585845947
1770950694319951000,8.250951171875,9.513862609863281,-11.389835357666016,0.2105683982372284
1770950694338918400,8.26991845703125,3.3308091163635254,-6.771687984466553,1.191625714302063
1770950694357885700,8.2888857421875,0.2919243574142456,-4.479363918304443,2.282752752304077
1770950694376853200,8.307853271484374,1.8855443000793457,-3.335594654083252,2.4981069564819336
1770950694395820500,8.326820556640625,4.575077056884766,-4.455435752868652,1.3160524368286133
1770950694414787800,8.345787841796875,4.369294166564941,-6.369693756103516,0.12442677468061447
1770950694433755400,8.36475537109375,1.4261223077774048,-7.566105365753174,0
1770950694452722700,8.38372265625,1.3495519161224365,-7.75753116607666,-0.07178468257188797
1770950694471690200,8.402690185546875,3.651447296142578,-8.063812255859375,-0.41156548261642456
1770950694490657500,8.421657470703124,3.3308091163635254,-7.341179847717285,1.0432707071304321
1770950694509625000,8.440625,4.106083869934082,-6.307480335235596,2.2205393314361572
1770950694528592400,8.45959228515625,5.000999450683594,-7.5565338134765625,2.306680917739868
1770950694547560000,8.478559814453124,5.216353416442871,-11.0835542678833,1.6654045581817627
1770950694566527200,8.49752734375,7.168896675109863,-15.77827262878418,1.1676974296569824
1770950694585494500,8.51649462890625,8.724231719970703,-20.49213218688965,2.4741785526275635
1770950694604462000,8.535462158203124,2.5698914527893066,-21.640687942504883,3.9385859966278076
1770950694623429400,8.554429443359375,-1.0193424224853516,-20.774486541748047,5.230710506439209
1770950694642397000,8.57339697265625,-2.115255117416382,-17.079967498779297,9.810572624206543
1770950694661364200,8.5923642578125,2.043470621109009,-13.146167755126953,6.781259536743164
1770950694680331800,8.611331787109375,2.794816732406616,-7.475177764892578,5.465207099914551
1770950694699299000,8.630299072265625,2.4646072387695312,-3.4265220165252686,5.077569484710693
1770950694718266600,8.6492666015625,2.6799614429473877,-3.321237802505493,4.350151538848877
1770950694737234000,8.66823388671875,1.2442678213119507,-3.311666488647461,3.4648072719573975
1770950694756201500,8.687201416015625,0.397208571434021,-3.139383316040039,2.392822742462158
1770950694775168800,8.706168701171874,-0.03349951654672623,-1.8089739084243774,1.9286150932312012
1770950694794136300,8.72513623046875,0.2392822653055191,-0.550349235534668,2.6799614429473877
1770950694813103600,8.744103515625,0.6125625967979431,-0.20578274130821228,3.1106693744659424
1770950694832071000,8.76307080078125,0.9858429431915283,-0.27756741642951965,3.1250264644622803
1770950694851038500,8.78203857421875,0.32542386651039124,-0.5407779216766357,2.3784656524658203
1770950694870005800,8.801005859375,0.4163511395454407,-1.7994025945663452,1.2011969089508057
1770950694888973300,8.819973388671874,2.60339093208313,-6.752545356750488,-0.6317051649093628
1770950694907940600,8.838940673828125,5.168497085571289,-19.372291564941406,0.6508477330207825
1770950694926908200,8.857908203125,8.0350980758667,-18.195022583007812,3.115455150604248
1770950694945875500,8.87687548828125,9.987641334533691,-13.117453575134277,2.2205393314361572
1770950694964843000,8.895843017578125,7.6474609375,-8.197810173034668,2.612962245941162
1770950694983810300,8.914810302734375,7.848458290100098,-6.723831653594971,6.302694797515869
1770950695002777900,8.93377783203125,1.545763373374939,-9.446864128112793,9.145368576049805
1770950695021745200,8.9527451171875,-7.676175117492676,-12.80160140991211,10.265209197998047
1770950695040712700,8.971712646484375,-2.5459632873535156,-9.987641334533691,10.38485050201416
1770950695059680000,8.990679931640624,-1.2538390159606934,-8.585447311401367,1.4931213855743408
1770950695078647600,9.0096474609375,19.874784469604492,-22.124038696289062,4.618147850036621
1770950695097614800,9.02861474609375,-3.421736478805542,-22.49253273010254,5.733202934265137
1770950695116582400,9.04758251953125,-5.091926574707031,-9.628718376159668,2.2301106452941895
1770950695135549700,9.0665498046875,-5.264209747314453,-8.12123966217041,2.335394859313965
1770950695154517200,9.085517333984376,-2.1583259105682373,-11.854043006896973,3.6610186100006104
1770950695173484500,9.104484619140624,0.6556333899497986,-12.394821166992188,3.053241729736328
1770950695192452000,9.1234521484375,0.1579262912273407,-10.045069694519043,2.5842485427856445
1770950695211419400,9.14241943359375,1.0145567655563354,-8.609375953674316,1.7515461444854736
1770950695230387000,9.161386962890624,3.177668571472168,-7.977670669555664,1.588834285736084
1770950695249354200,9.180354248046875,6.3840508460998535,-7.628318786621094,1.5074782371520996
1770950695268321800,9.19932177734375,5.465207099914551,-6.436692714691162,2.641676187515259
1770950695287289300,9.218289306640624,3.7328033447265625,-5.197210788726807,2.4502503871917725
1770950695306256600,9.237256591796875,2.7038896083831787,-4.589433670043945,2.0003998279571533
1770950695325224000,9.256223876953126,2.421536445617676,-4.910071849822998,0.7322037220001221
1770950695344191500,9.27519140625,2.139183521270752,-6.920042991638184,-0.14835500717163086
1770950695363159000,9.294158935546875,0.7130611538887024,-7.781459331512451,0.06699903309345245
1770950695382126300,9.313126220703126,1.129412293434143,-7.680960655212402,0.7226324677467346
1770950695401094000,9.332093994140624,1.0815558433532715,-7.226324558258057,0.9810572862625122
1770950695420061200,9.351061279296875,3.005385160446167,-8.365307807922363,-0.45942193269729614
1770950695439028700,9.37002880859375,7.020541667938232,-10.518848419189453,-0.5886343717575073
1770950695457996000,9.38899609375,7.905886173248291,-13.452448844909668,-0.14835500717163086
1770950695476963600,9.407963623046875,8.508877754211426,-15.046069145202637,2.7565317153930664
1770950695495931000,9.426930908203126,8.14516830444336,-18.190237045288086,5.757131099700928
1770950695514898400,9.4458984375,0.8949156403541565,-19.525432586669922,5.637490272521973
1770950695533866000,9.464865966796875,-3.555734395980835,-17.414962768554688,9.126225471496582
1770950695552833300,9.483833251953126,-1.3782658576965332,-15.261423110961914,7.17368221282959
1770950695571800800,9.50280078125,1.919043779373169,-12.260823249816895,6.479763507843018
1770950695590768000,9.52176806640625,3.6323046684265137,-8.987442016601562,7.5086774826049805
1770950695609735700,9.540735595703126,2.2205393314361572,-6.2500529289245605,6.087340831756592
1770950695628703000,9.559702880859374,1.397408366203308,-4.101297855377197,3.704089403152466
1770950695647670500,9.57867041015625,0.4977070987224579,-2.297109842300415,2.124826431274414
1770950695666638000,9.59763818359375,-0.2967100143432617,-1.6175481081008911,0.698704183101654
1770950695685605400,9.61660546875,0.07178468257188797,-1.28255295753479,0.44027936458587646
1770950695704573000,9.635572998046875,1.3256237506866455,-0.760917603969574,2.0482561588287354
1770950695723540200,9.654540283203126,1.7563318014144897,-1.0336993932724,3.7710886001586914
1770950695742507800,9.6735078125,0.2871387302875519,-1.526620864868164,4.130012035369873
1770950695761475300,9.692475341796875,-0.3158525824546814,-1.789831280708313,3.78544545173645
1770950695780442600,9.711442626953126,0.12442677468061447,-3.263810157775879,2.8043880462646484
1770950695799410200,9.73041015625,-0.6652047038078308,-8.949156761169434,1.2634103298187256
1770950695818377500,9.74937744140625,1.5744773149490356,-16.63968849182129,2.172683000564575
1770950695837345000,9.768344970703126,8.12123966217041,-16.333406448364258,1.6606189012527466
1770950695856312300,9.787312255859375,10.767702102661133,-13.63908863067627,2.1200408935546875
1770950695875280000,9.80627978515625,10.676774978637695,-9.073583602905273,2.8187451362609863
1770950695894247400,9.825247314453126,8.513663291931152,-8.752944946289062,4.838287353515625
1770950695913214700,9.844214599609375,2.1918256282806396,-10.48534870147705,7.058826923370361
1770950695932182300,9.863182373046875,-3.9625144004821777,-10.84427261352539,7.791030406951904
1770950695951149600,9.882149658203126,-6.446264266967773,-8.403593063354492,5.158925533294678
1770950695970117000,9.9011171875,-7.0683979988098145,-9.159725189208984,2.9288148880004883
1770950695989084700,9.920084716796875,-10.643275260925293,-22.698314666748047,8.666803359985352
1770950696008052000,9.939052001953126,19.95135498046875,-24.737001419067383,6.135197162628174
1770950696027019500,9.95801953125,-11.021341323852539,-11.80618667602539,2.909672260284424
1770950696045986800,9.97698681640625,-5.804987907409668,-6.9344000816345215,2.531606435775757
1770950696064954400,9.995954345703124,-3.6945180892944336,-6.953542709350586,4.417150497436523
1770950696083922000,10.014921875,-1.3639088869094849,-10.04985523223877,4.46979284286499
1770950696102889200,10.03388916015625,0.5120640397071838,-10.289137840270996,3.9529430866241455
1770950696121856800,10.052856689453124,1.5170495510101318,-9.245866775512695,2.6321048736572266
1770950696140824300,10.07182421875,3.373879909515381,-8.719446182250977,1.9812572002410889
1770950696159791600,10.09079150390625,5.182853698730469,-7.518248558044434,1.4021940231323242
1770950696178759200,10.10975927734375,5.158925533294678,-5.9437713623046875,1.301695466041565
1770950696197726500,10.1287265625,4.393222332000732,-5.034498691558838,1.5792629718780518
1770950696216694000,10.147694091796875,3.570091485977173,-4.996213912963867,1.5649060010910034
1770950696235661600,10.16666162109375,2.5124638080596924,-6.355337142944336,0.7465606927871704
1770950696254628900,10.18562890625,1.5696916580200195,-6.738188743591309,0.22971096634864807
1770950696273596400,10.204596435546875,1.8664016723632812,-6.508477687835693,-0.8039883971214294
1770950696292564000,10.22356396484375,2.2157537937164307,-6.833901405334473,-0.397208571434021
1770950696311531300,10.24253125,1.5984054803848267,-7.791030406951904,0.12921242415905
1770950696330498800,10.261498779296875,3.0101709365844727,-9.638289451599121,0.2584248483181
1770950696349466400,10.28046630859375,5.737988471984863,-12.098111152648926,0.15314064919948578
1770950696368433700,10.29943359375,8.188239097595215,-16.007984161376953,0.19621145725250244
1770950696387401200,10.318401123046876,7.283751964569092,-18.88894271850586,2.3401806354522705
1770950696406368500,10.337368408203124,5.737988471984863,-19.712072372436523,5.637490272521973
1770950696425336000,10.356336181640625,1.2011969089508057,-18.3912353515625,7.149754047393799
1770950696444303600,10.3753037109375,-2.8139593601226807,-16.094125747680664,9.408578872680664
1770950696463271000,10.39427099609375,0.3158525824546814,-14.170295715332031,7.575676441192627
1770950696482238500,10.413238525390625,2.541177749633789,-11.236695289611816,6.594619274139404
1770950696501206000,10.4322060546875,2.9479575157165527,-7.6474609375,6.441478729248047
1770950696520173300,10.45117333984375,1.1724830865859985,-5.082355499267578,4.570291042327881
1770950696539140900,10.470140869140625,0.09571290761232376,-3.814159393310547,2.5603201389312744
1770950696558108400,10.4891083984375,-0.9284151792526245,-2.234896421432495,1.4021940231323242
1770950696577075700,10.50807568359375,-0.9571290612220764,-1.4069796800613403,0.6125625967979431
1770950696596043300,10.527043212890625,-0.11964113265275955,-0.698704183101654,0.9571290612220764
1770950696615010800,10.5460107421875,1.454836130142212,0.09092725813388824,1.9094724655151367
1770950696633978000,10.56497802734375,1.919043779373169,0.4977070987224579,2.713460922241211
1770950696652945700,10.583945556640625,1.28255295753479,0.5072783827781677,3.249453067779541
1770950696671913200,10.602913330078126,-0.04785645380616188,-0.13878370821475983,3.6323046684265137
1770950696690880500,10.621880615234375,-1.0719845294952393,-3.3403804302215576,2.861815929412842
1770950696709848000,10.64084814453125,-1.8999011516571045,-14.787644386291504,1.8041882514953613
1770950696728815600,10.659815673828126,0.4259224236011505,-19.343578338623047,3.2685956954956055
1770950696747783000,10.678782958984375,9.997213363647461,-16.677974700927734,1.3256237506866455
1770950696766750500,10.69775048828125,15.261423110961914,-12.394821166992188,1.1629117727279663
1770950696785718000,10.716718017578126,14.43350601196289,-10.85862922668457,4.182653903961182
1770950696804685600,10.735685546875,0.4307080805301666,-9.394221305847168,5.742774486541748
1770950696823652900,10.75465283203125,-7.594819068908691,-8.365307807922363,7.073183536529541
1770950696842620400,10.773620361328126,-10.418350219726562,-9.001798629760742,10.839486122131348
1770950696861588000,10.792587890625,-3.1250264644622803,-12.53839111328125,6.953542709350586
1770950696880555300,10.81155517578125,25.55534553527832,-26.756542205810547,0.4259224236011505
1770950696899522800,10.830522705078126,1.6654045581817627,-22.37767791748047,2.847458839416504
1770950696918490400,10.849490478515625,-4.005585193634033,-9.470791816711426,6.838686943054199
1770950696937457700,10.868457763671875,-5.436492919921875,-6.532405853271484,3.9529430866241455
1770950696956425200,10.88742529296875,-4.804787635803223,-7.159325122833252,4.187439441680908
1770950696975392800,10.906392822265625,-1.8616160154342651,-11.983255386352539,4.1347975730896
1770950696994360300,10.9253603515625,3.4169507026672363,-12.667603492736816,2.6273193359375
1770950697013327600,10.94432763671875,4.3788652420043945,-9.226723670959473,1.1389836072921753
1770950697032295200,10.963295166015625,3.397808074951172,-6.896114826202393,0.5934200286865234
1770950697051262700,10.9822626953125,2.943171739578247,-5.862415313720703,1.5649060010910034
1770950697070230000,11.00122998046875,3.7902309894561768,-4.445864677429199,2.7278177738189697
1770950697089197600,11.020197509765625,4.752145767211914,-3.7088751792907715,2.445464849472046
1770950697108165000,11.0391650390625,2.335394859313965,-4.804787635803223,1.947757601737976
1770950697127132700,11.058132568359374,1.6558332443237305,-5.766702651977539,0.7417750358581543
1770950697146100000,11.077099853515625,3.665804386138916,-7.073183536529541,-0.8135597109794617
1770950697165067500,11.096067626953126,6.4510498046875,-8.413164138793945,-0.23449662327766418
1770950697184035000,11.11503515625,5.144568920135498,-8.164310455322266,0.6604190468788147
1770950697203002600,11.134002685546875,3.8189449310302734,-8.394021987915039,2.7326035499572754
1770950697221970000,11.152969970703126,5.374279499053955,-10.265209197998047,2.5986053943634033
1770950697240937500,11.1719375,8.882157325744629,-14.998211860656738,3.22552490234375
1770950697259905000,11.190905029296875,3.1824541091918945,-18.218952178955078,4.053441524505615
1770950697278872300,11.209872314453126,-3.641875982284546,-19.03251075744629,4.359723091125488
1770950697297839900,11.22883984375,-0.44027936458587646,-20.640487670898438,4.058227062225342
1770950697316807400,11.247807373046875,0.004785645287483931,-20.40120506286621,5.044070243835449
1770950697335774700,11.266774658203126,5.197210788726807,-15.677774429321289,8.02074146270752
1770950697354742300,11.2857421875,4.766502857208252,-7.752745151519775,7.9585280418396
1770950697373709800,11.304709716796875,1.612762451171875,-3.0867412090301514,4.230510234832764
1770950697392677400,11.323677490234376,0.8135597109794617,-2.00518536567688,2.368894338607788
1770950697411644700,11.342644775390625,-0.6364908218383789,-1.9094724655151367,1.6606189012527466
1770950697430612200,11.3616123046875,-0.8183453679084778,-1.919043779373169,1.8376877307891846
1770950697449579800,11.380579833984376,-0.2584248483181,-1.6079767942428589,2.550748825073242
1770950697468547300,11.39954736328125,0.7130611538887024,-0.8805587291717529,3.531806230545044
1770950697487514600,11.4185146484375,0.760917603969574,-0.5934200286865234,4.034298896789551
1770950697506482200,11.437482177734376,0.6508477330207825,-0.33020952343940735,4.1970109939575195
1770950697525449700,11.45644970703125,0.13878370821475983,-0.2967100143432617,4.565505504608154
1770950697544417300,11.475417236328125,-0.641276478767395,-2.4885356426239014,4.211368083953857
1770950697563384600,11.494384521484376,-0.22013968229293823,-15.098711013793945,2.3784656524658203
1770950697582352100,11.51335205078125,2.641676187515259,-17.132610321044922,-0.550349235534668
1770950697601319700,11.532319580078125,13.95972728729248,-18.774085998535156,-3.0005996227264404
1770950697620287200,11.551287353515624,11.375478744506836,-13.16530990600586,0.02871387079358101
1770950697639254500,11.570254638671875,3.895515203475952,-9.107083320617676,3.6370904445648193
1770950697658222000,11.58922216796875,0.22971096634864807,-7.307680130004883,6.455835342407227
1770950697677189600,11.608189697265624,-4.579862594604492,-8.997013092041016,13.548161506652832
1770950697696157200,11.6271572265625,-3.0388846397399902,-9.489934921264648,14.031512260437012
1770950697715124700,11.646124755859375,-3.4025938510894775,-9.585647583007812,4.326223373413086
1770950697734092000,11.665092041015624,-7.250252723693848,-13.600804328918457,3.0723843574523926
1770950697753059600,11.6840595703125,-2.1343977451324463,-25.46920394897461,0.6460621356964111
1770950697772027100,11.703027099609375,22.482961654663086,-21.473190307617188,4.618147850036621
1770950697790994700,11.72199462890625,-0.7896314859390259,-12.634103775024414,4.153940200805664
1770950697809962000,11.7409619140625,-4.077369689941406,-9.762716293334961,3.445664644241333
1770950697828929500,11.759929443359376,-3.9672999382019043,-9.279366493225098,2.493321180343628
1770950697847897000,11.77889697265625,-3.838087558746338,-8.097311973571777,1.4069796800613403
1770950697866864600,11.79786474609375,-2.0817556381225586,-6.187839508056641,1.5840486288070679
1770950697885832000,11.81683203125,0.16271193325519562,-4.919643402099609,2.60339093208313
1770950697904799500,11.835799560546874,2.2444677352905273,-4.7952165603637695,4.297509670257568
1770950697923767000,11.85476708984375,2.9527430534362793,-5.972485542297363,5.498706340789795
1770950697942734600,11.873734619140626,3.9290146827697754,-6.4319071769714355,4.106083869934082
1770950697961702000,11.892701904296874,5.474778175354004,-5.838487148284912,2.2205393314361572
1770950697980669400,11.91166943359375,3.900300979614258,-6.03948450088501,0.5455635786056519
1770950697999637000,11.930636962890626,-1.454836130142212,-7.915457248687744,-0.41156548261642456
1770950698018604500,11.9496044921875,-3.799802303314209,-8.193024635314941,-0.8135597109794617
1770950698037572000,11.968572021484375,0.7896314859390259,-10.657631874084473,-3.2781670093536377
1770950698056539400,11.987539306640626,4.804787635803223,-12.3278226852417,-4.101297855377197
1770950698075507000,12.0065068359375,5.431707382202148,-11.992827415466309,-3.6993038654327393
1770950698094474500,12.025474609375,5.359922885894775,-12.519248008728027,-3.359523057937622
1770950698113442000,12.044442138671876,1.1581261157989502,-16.9603271484375,-3.2781670093536377
1770950698132409300,12.063409423828125,-3.5748770236968994,-17.467605590820312,-0.03349951654672623
1770950698151377000,12.082376953125,-2.00518536567688,-17.132610321044922,7.058826923370361
1770950698170344400,12.101344482421876,-2.723032236099243,-21.736400604248047,10.140782356262207
1770950698189312000,12.12031201171875,-0.6508477330207825,-22.420747756958008,18.510875701904297
1770950698208279300,12.139279296875,2.675175666809082,-22.119253158569336,21.166908264160156
1770950698227246800,12.158246826171874,6.900900363922119,-15.079567909240723,16.017555236816406
1770950698246214400,12.17721435546875,2.2683959007263184,-11.423335075378418,11.126625061035156
1770950698265182000,12.196181884765625,-3.9385859966278076,-9.159725189208984,7.628318786621094
1770950698284149200,12.215149169921874,-6.565905570983887,-7.345965385437012,4.019941806793213
1770950698303116800,12.23411669921875,-3.4121651649475098,-9.121439933776855,0.16271193325519562
1770950698322084400,12.25308447265625,2.2683959007263184,-8.877371788024902,1.4644074440002441
1770950698341051600,12.2720517578125,-3.115455150604248,-5.2977094650268555,3.713660717010498
1770950698360019200,12.291019287109375,-3.1824541091918945,-1.3112667798995972,2.3258235454559326
1770950698378986800,12.30998681640625,-2.5603201389312744,2.6943182945251465,1.2538390159606934
1770950698397954300,12.328954345703124,-1.9764715433120728,4.867001056671143,1.191625714302063
1770950698416921900,12.347921875,-2.2779672145843506,5.498706340789795,1.1485549211502075
1770950698435889400,12.366889404296876,-3.211168050765991,2.675175666809082,0.5982056856155396
1770950698454856700,12.385856689453124,0.7992027401924133,-1.4883357286453247,1.057627558708191
1770950698473824300,12.40482421875,7.719245910644531,-5.288137912750244,3.933800458908081
1770950698492791800,12.423791748046876,31.518259048461914,-17.37189292907715,7.537391185760498
1770950698511759400,12.44275927734375,12.681960105895996,-37.485958099365234,0.9092726111412048
1770950698530726700,12.4617265625,6.4510498046875,-21.03291130065918,2.4741785526275635
1770950698549694200,12.480694091796876,5.685346603393555,-3.005385160446167,4.704289436340332
1770950698568661800,12.499661865234375,-0.641276478767395,-4.972285270690918,15.86441421508789
1770950698587629300,12.51862939453125,-13.232309341430664,-11.973684310913086,13.663017272949219
1770950698606596600,12.5375966796875,-9.834501266479492,-9.528220176696777,7.197610378265381
1770950698625564200,12.556564208984375,-6.719046115875244,-2.837887763977051,7.231110095977783
1770950698644531700,12.57553173828125,-4.838287353515625,-4.048655986785889,6.853044033050537
1770950698663499300,12.594499267578126,-5.158925533294678,-7.743174076080322,7.36032247543335
1770950698682466800,12.613466796875,-5.560919761657715,-9.8871431350708,10.15035343170166
1770950698701434000,12.63243408203125,-6.948757171630859,-12.959527015686035,8.685946464538574
1770950698720401700,12.651401611328126,-6.044270038604736,-16.094125747680664,4.957928657531738
1770950698739369200,12.670369140625,-9.040083885192871,-13.01216983795166,1.6462619304656982
1770950698758336800,12.689336669921875,7.805387496948242,-17.079967498779297,-7.561319351196289
1770950698777304000,12.708303955078126,7.054041385650635,-12.40439224243164,-8.508877754211426
1770950698796271600,12.727271728515625,-2.6321048736572266,-7.436892986297607,-0.6556333899497986
1770950698815239200,12.7462392578125,-3.6849467754364014,-6.613761901855469,2.043470621109009
1770950698834206700,12.765206787109374,-1.7371892929077148,-6.647261142730713,2.8761727809906006
1770950698853174000,12.784174072265625,-1.6558332443237305,-7.0301127433776855,3.2829527854919434
1770950698872141600,12.8031416015625,-1.6701902151107788,-7.255038261413574,3.493520975112915
1770950698891109000,12.822109130859374,0.04785645380616188,-9.475577354431152,3.345165967941284
1770950698910076700,12.84107666015625,3.862015724182129,-10.882556915283203,2.6799614429473877
1770950698929044200,12.860044189453125,6.283552169799805,-10.461421012878418,2.1918256282806396
1770950698948011500,12.879011474609374,3.84765887260437,-10.145567893981934,1.2969099283218384
1770950698966979000,12.89797900390625,2.4502503871917725,-11.45683479309082,0.14356936514377594
1770950698985946600,12.916946533203125,1.1389836072921753,-12.782458305358887,-1.5840486288070679
1770950699004914200,12.9359140625,-1.2346965074539185,-13.308879852294922,-2.3401806354522705
1770950699023881700,12.9548818359375,-1.9764715433120728,-11.796615600585938,-2.5938198566436768
1770950699042849000,12.97384912109375,0.6125625967979431,-11.198410034179688,-2.1343977451324463
1770950699061816600,12.992816650390624,5.024927616119385,-12.169896125793457,0.0526420995593071
1770950699080784100,13.0117841796875,5.982056617736816,-13.87358570098877,2.335394859313965
1770950699099751700,13.030751708984376,3.9146578311920166,-13.466805458068848,5.546562671661377
1770950699118719000,13.049718994140624,1.6319050788879395,-12.533604621887207,9.05444049835205
1770950699137686500,13.0686865234375,1.9094724655151367,-14.993426322937012,7.365108013153076
1770950699156654000,13.087654052734376,0.6173482537269592,-14.878571510314941,8.087740898132324
1770950699175621600,13.10662158203125,-3.22552490234375,-15.160923957824707,10.514062881469727
1770950699194589200,13.125589111328125,-3.871587038040161,-15.486348152160645,13.878371238708496
1770950699213556500,13.144556396484376,-2.4263222217559814,-12.016755104064941,14.835500717163086
1770950699232524000,13.16352392578125,1.9716858863830566,-11.030912399291992,6.3840508460998535
1770950699251491600,13.18249169921875,5.383851051330566,-11.978469848632812,2.201396942138672
1770950699270459100,13.201459228515626,-3.014956474304199,-10.408778190612793,2.967100143432617
1770950699298910200,13.22991015625,-1.5361921787261963,-9.121439933776855,0.3732803463935852
1770950699317877800,13.248877685546875,-2.6368906497955322,-6.508477687835693,1.277767300605774
1770950699336845300,13.26784521484375,-2.100898265838623,-4.2592244148254395,2.1822543144226074
1770950699355812900,13.286812744140626,-1.4931213855743408,-1.8711873292922974,2.7326035499572754
1770950699374780400,13.305780517578125,-0.8183453679084778,-0.794417142868042,3.421736478805542
1770950699393747700,13.324747802734375,-1.4165509939193726,-0.24406790733337402,3.153740167617798
1770950699412715300,13.34371533203125,-2.335394859313965,0.8566305041313171,3.814159393310547
1770950699431682800,13.362682861328125,-2.493321180343628,1.1629117727279663,3.177668571472168
1770950699450650400,13.381650390625,-2.2061824798583984,-0.5694918036460876,1.1102696657180786
1770950699469617700,13.40061767578125,0.9092726111412048,-2.589034080505371,0.11006984114646912
1770950699488585200,13.419585205078125,7.901100158691406,-4.369294166564941,0.2967100143432617
1770950699507552800,13.438552734375,20.879770278930664,-6.814758777618408,1.6558332443237305
1770950699526520300,13.457520263671874,21.683759689331055,-17.400606155395508,0.7896314859390259
1770950699545488000,13.47648779296875,6.604190349578857,-26.182266235351562,3.775874137878418
1770950699564455200,13.495455078125,6.666403770446777,-20.276779174804688,7.317251682281494
1770950699583422700,13.514422607421874,9.030512809753418,-8.23130989074707,8.901300430297852
1770950699602390300,13.533390380859375,5.9916276931762695,-5.029713153839111,7.5565338134765625
1770950699621357800,13.55235791015625,-1.6175481081008911,-4.46979284286499,8.700303077697754
1770950699640325400,13.571325439453124,1.6175481081008911,-9.21715259552002,13.055240631103516
1770950699659292700,13.590292724609375,-6.556334018707275,-12.423535346984863,7.944170951843262
1770950699678260200,13.60926025390625,-8.590232849121094,-6.374479293823242,3.1824541091918945
1770950699697227800,13.628227783203124,-6.675975322723389,-5.513063430786133,1.9286150932312012
1770950699716195300,13.6471953125,-7.523034572601318,-6.245266914367676,1.430907964706421
1770950699735163000,13.666162841796876,-6.652047157287598,-7.6474609375,5.493920803070068
1770950699754130200,13.685130126953124,-2.091326951980591,-9.762716293334961,6.905686378479004
1770950699773097700,13.70409765625,-1.5553346872329712,-12.978670120239258,4.996213912963867
1770950699792065300,13.723065185546876,-8.461020469665527,-15.869199752807617,3.8428730964660645
1770950699811032800,13.74203271484375,10.423135757446289,-15.73998737335205,-2.4837498664855957
1770950699830000400,13.76100048828125,7.432106971740723,-10.164710998535156,-1.4979069232940674
1770950699848967700,13.7799677734375,0.6269195079803467,-8.97787094116211,-0.4737788736820221
1770950699867935200,13.798935302734375,-4.53200626373291,-8.461020469665527,2.187039852142334
1770950699886902800,13.81790283203125,-4.01037073135376,-7.216753005981445,1.4835500717163086
1770950699905870300,13.836870361328126,-3.436093330383301,-6.364908218383789,1.545763373374939
1770950699924838000,13.855837890625,-2.885744094848633,-6.211767673492432,2.56510591506958
1770950699943805200,13.87480517578125,-2.3497519493103027,-6.503692150115967,3.680161237716675
1770950699962772700,13.893772705078124,-0.8087740540504456,-7.63310432434082,4.7712883949279785
1770950699981740300,13.912740234375,3.5509488582611084,-9.647860527038574,4.785645484924316
1770950700000707800,13.931707763671875,6.647261142730713,-9.006584167480469,4.240081787109375
1770950700019675400,13.95067529296875,2.612962245941162,-8.930013656616211,2.139183521270752
1770950700038642700,13.969642578125,0.1818545162677765,-11.054841041564941,0.6460621356964111
1770950700057610200,13.9886103515625,2.1296122074127197,-12.284751892089844,-0.02392822690308094
1770950700076577800,14.007577880859374,3.82373046875,-12.0933256149292,-0.2679961323738098
1770950700095545300,14.02654541015625,-0.14835500717163086,-12.31825065612793,-0.7848458290100098
1770950700114513000,14.045512939453126,-3.737588882446289,-12.619746208190918,-1.0767701864242554
1770950700133480400,14.06448046875,-1.1485549211502075,-12.811172485351562,-0.2392822653055191
1770950700152447700,14.08344775390625,3.4408788681030273,-13.753944396972656,1.7084753513336182
1770950700171415300,14.102415283203126,5.249852657318115,-14.395220756530762,2.4741785526275635
1770950700190382800,14.1213828125,1.6941183805465698,-13.36152172088623,2.6464617252349854
1770950700209350400,14.140350341796875,-0.09571290761232376,-13.691731452941895,3.6610186100006104
1770950700228318000,14.15931787109375,2.5746772289276123,-14.950355529785156,1.545763373374939
1770950700247285500,14.178285400390624,0.4019941985607147,-15.03171157836914,3.675375461578369
1770950700266252800,14.197252685546875,-3.077169895172119,-14.423934936523438,8.915657043457031
1770950700285220400,14.216220458984376,-4.101297855377197,-14.59621810913086,12.796815872192383
1770950700304188000,14.23518798828125,-3.0484559535980225,-13.61037540435791,14.227723121643066
1770950700323155500,14.254155517578125,-0.019142581149935722,-10.738987922668457,10.715060234069824
1770950700342123000,14.273123046875,3.311666488647461,-10.006784439086914,6.116054534912109
1770950700361090600,14.292090576171875,-0.07657032459974289,-10.853843688964844,3.84765887260437
1770950700380057900,14.311057861328125,-4.977071285247803,-10.85862922668457,1.4691931009292603
1770950700399025400,14.330025390625,-1.765903115272522,-11.341979026794434,-0.4977070987224579
1770950700417993000,14.348992919921875,-1.430907964706421,-7.231110095977783,1.5984054803848267
1770950700436960500,14.36796044921875,-1.9094724655151367,-3.211168050765991,2.5698914527893066
1770950700455928000,14.386927978515626,-1.1868400573730469,-1.5696916580200195,2.7038896083831787
1770950700474895600,14.4058955078125,-1.8089739084243774,-1.3639088869094849,2.919243574142456
1770950700493863000,14.42486279296875,-1.8185452222824097,-0.8997012972831726,3.321237802505493
1770950700512830500,14.44383056640625,-2.1104695796966553,-0.1579262912273407,4.182653903961182
1770950700531798000,14.462798095703125,-3.2063822746276855,-0.349352091550827,4.350151538848877
1770950700550765600,14.481765625,-1.9956140518188477,-2.0482561588287354,2.9958138465881348
1770950700569733000,14.500733154296874,1.5361921787261963,-3.8428730964660645,1.8951154947280884
1770950700588700700,14.51970068359375,5.489135265350342,-5.460421085357666,1.454836130142212
1770950700607668200,14.538668212890625,8.35573673248291,-7.183253765106201,1.191625714302063
1770950700626635500,14.557635498046874,11.538190841674805,-11.179266929626465,0.0526420995593071
1770950700645603000,14.57660302734375,14.179866790771484,-16.950756072998047,-2.3258235454559326
1770950700664570600,14.595570556640626,9.379864692687988,-19.099510192871094,-0.5120640397071838
1770950700683538200,14.6145380859375,8.63330364227295,-14.983855247497559,2.833101987838745
1770950700702505700,14.633505615234375,8.906085968017578,-10.671989440917969,5.8097734451293945
1770950700721473300,14.652473388671876,8.542376518249512,-11.150553703308105,8.312665939331055
1770950700740440800,14.67144091796875,7.336394309997559,-13.691731452941895,6.814758777618408
1770950700759408000,14.690408203125,-0.9906286001205444,-11.710474014282227,8.695517539978027
1770950700778375700,14.709375732421876,-3.16331148147583,-3.651447296142578,8.288737297058105
1770950700797343200,14.72834326171875,-5.383851051330566,-0.09092725813388824,4.646861553192139
1770950700816310800,14.747310791015625,-10.85862922668457,-4.685146808624268,1.1150553226470947
1770950700835278300,14.7662783203125,-10.619346618652344,-8.599804878234863,2.335394859313965
1770950700854246000,14.785245849609375,-4.9531426429748535,-12.52881908416748,3.0963125228881836
1770950700873213400,14.80421337890625,5.120640277862549,-17.577674865722656,5.493920803070068
1770950700892180700,14.8231806640625,-1.8185452222824097,-16.7736873626709,4.1491546630859375
1770950700911148300,14.842148193359375,1.7850457429885864,-11.0835542678833,2.4406790733337402
1770950700930115800,14.86111572265625,-1.3591232299804688,-7.762316703796387,3.7232320308685303
1770950700949083400,14.88008349609375,-0.16749759018421173,-6.991827964782715,3.88594388961792
1770950700968051000,14.899051025390625,0.7896314859390259,-7.154539585113525,2.6177480220794678
1770950700987018500,14.9180185546875,0.8327022790908813,-8.403593063354492,1.4165509939193726
1770950701005986000,14.936986083984374,1.215553879737854,-9.528220176696777,0.3732803463935852
1770950701024953600,14.95595361328125,1.6893328428268433,-9.408578872680664,1.34476637840271
1770950701043921000,14.9749208984375,1.8664016723632812,-8.398807525634766,1.947757601737976
1770950701062888400,14.993888427734374,2.794816732406616,-7.8628153800964355,1.6366907358169556
1770950701081856000,15.01285595703125,3.239881753921509,-8.260024070739746,1.7324036359786987
1770950701100823600,15.031823486328125,3.115455150604248,-8.671588897705078,2.163111686706543
1770950701119791000,15.050791015625,3.493520975112915,-8.95394229888916,1.6701902151107788
1770950701138758700,15.069758544921875,3.483949661254883,-8.327022552490234,1.4404792785644531
1770950701157726200,15.088726318359376,1.4165509939193726,-6.393621921539307,1.3208380937576294
1770950701176693800,15.10769384765625,1.2442678213119507,-5.54177713394165,1.765903115272522
1770950701195661000,15.1266611328125,1.0336993932724,-6.9104719161987305,2.7278177738189697
1770950701214628600,15.145628662109376,3.1250264644622803,-8.70508861541748,2.909672260284424
1770950701233596200,15.16459619140625,2.3497519493103027,-9.164510726928711,3.2303106784820557
1770950701252563700,15.183563720703125,0.550349235534668,-7.121040344238281,2.737389087677002
1770950701271531300,15.20253125,0.7417750358581543,-6.10169792175293,1.2921242713928223
1770950701290498800,15.221498779296875,1.7515461444854736,-7.829315662384033,-0.019142581149935722
1770950701309466400,15.24046630859375,1.215553879737854,-9.561718940734863,-0.17706887423992157
1770950701328434000,15.259433837890626,0.44027936458587646,-10.217352867126465,-0.2919243574142456
1770950701347401200,15.278401123046875,2.234896421432495,-9.446864128112793,-0.760917603969574
1770950701366368800,15.29736865234375,5.398207664489746,-8.915657043457031,0.2153540402650833
1770950701385336300,15.31633642578125,8.499305725097656,-8.757730484008789,1.8711873292922974
1770950701404304000,15.335303955078125,7.767102241516113,-10.925628662109375,3.153740167617798
1770950701423271400,15.354271484375,5.843272686004639,-12.342179298400879,5.37906551361084
1770950701442239000,15.373239013671874,6.967899322509766,-15.854843139648438,5.532206058502197
1770950701461206500,15.39220654296875,3.3547372817993164,-20.94676971435547,6.4941205978393555
1770950701480174000,15.411174072265625,-0.6939185857772827,-20.98505401611328,9.485149383544922
1770950701499141600,15.4301416015625,2.589034080505371,-19.10429573059082,8.432307243347168
1770950701518109000,15.44910888671875,4.326223373413086,-11.499905586242676,8.188239097595215
1770950701537076500,15.468076416015625,3.751945972442627,-4.7473602294921875,7.609176158905029
1770950701556044000,15.4870439453125,4.278367042541504,-4.1491546630859375,5.972485542297363
1770950701575011600,15.506011474609375,1.8664016723632812,-5.230710506439209,3.9625144004821777
1770950701593979100,15.524979248046876,1.8855443000793457,-5.737988471984863,1.794616937637329
1770950701612946700,15.54394677734375,2.100898265838623,-5.039284706115723,1.4452649354934692
1770950701631914200,15.562914306640625,1.2442678213119507,-3.689732551574707,1.6366907358169556
1770950701650881800,15.5818818359375,0.5455635786056519,-3.0101709365844727,1.7324036359786987
1770950701669849300,15.600849365234374,0.4450650215148926,-2.6560330390930176,1.9908283948898315
1770950701688817000,15.61981689453125,1.3639088869094849,-1.2729816436767578,2.6847469806671143
1770950701707784200,15.6387841796875,1.6654045581817627,0.6460621356964111,3.249453067779541
1770950701726751700,15.657751708984375,0.794417142868042,2.201396942138672,3.460021495819092
1770950701745719300,15.67671923828125,-0.550349235534668,1.612762451171875,2.6847469806671143
1770950701764686800,15.695686767578126,-1.3830515146255493,-2.4263222217559814,0.8183453679084778
1770950701783654400,15.714654296875,-1.306481122970581,-6.977470874786377,-1.277767300605774
1770950701802622000,15.7336220703125,-0.062213387340307236,-14.423934936523438,-1.2921242713928223
1770950701821589500,15.752589599609376,2.5842485427856445,-23.61237335205078,2.785245656967163
1770950701840557000,15.77155712890625,7.293323516845703,-15.06999683380127,3.239881753921509
1770950701859524400,15.7905244140625,11.925827980041504,-11.251051902770996,2.5986053943634033
1770950701878492000,15.809491943359374,11.361122131347656,-9.236295700073242,3.8668015003204346
1770950701897459500,15.82845947265625,13.366307258605957,-10.38485050201416,7.6043901443481445
1770950701916427000,15.847427001953125,7.5565338134765625,-12.083754539489746,7.231110095977783
1770950701935394600,15.86639453125,-2.8043880462646484,-9.547362327575684,5.848058700561523
1770950701954362000,15.885362060546875,-8.74337387084961,-8.0350980758667,8.49452018737793
1770950701973329700,15.90432958984375,-3.82373046875,-8.733802795410156,8.575876235961914
1770950701992297200,15.923297119140624,-1.9381862878799438,-13.825729370117188,5.575276851654053
1770950702011264800,15.9422646484375,32.403602600097656,-31.44169044494629,-7.714460372924805
1770950702030232300,15.961232421875,-6.953542709350586,-15.342779159545898,0.2153540402650833
1770950702049199600,15.98019970703125,-6.733402729034424,-7.479963779449463,1.6941183805465698
1770950702068167200,15.999167236328125,-5.383851051330566,-7.135396957397461,2.3258235454559326
1770950702087134700,16.018134765625,-2.2683959007263184,-11.145768165588379,4.54636287689209
1770950702106102300,16.037102294921876,8.93958568572998,-13.02652645111084,3.5365917682647705
1770950702125069800,16.05606982421875,4.297509670257568,-9.657432556152344,3.656233072280884
1770950702144037400,16.075037353515626,-0.2919243574142456,-6.900900363922119,4.1730828285217285
1770950702163005000,16.0940048828125,0.6556333899497986,-4.680361270904541,3.2590243816375732
1770950702181972500,16.112972412109375,3.2925238609313965,-4.843072891235352,2.392822742462158
1770950702200940000,16.13193994140625,6.130411624908447,-6.034698486328125,1.397408366203308
1770950702219907600,16.150907470703125,3.7088751792907715,-6.51326322555542,0.9667003750801086
1770950702238875100,16.169875244140623,-0.16749759018421173,-5.474778175354004,1.5409778356552124
1770950702257842700,16.1888427734375,0.4450650215148926,-5.66620397567749,0.2967100143432617
1770950702276810000,16.20781005859375,3.871587038040161,-7.676175117492676,-0.4546363055706024
1770950702295777500,16.226777587890624,3.6370904445648193,-8.149953842163086,0.8231309652328491
1770950702314745000,16.2457451171875,2.421536445617676,-6.685546398162842,2.469393014907837
1770950702333712600,16.264712646484377,3.091526746749878,-6.556334018707275,3.493520975112915
1770950702352680200,16.28368017578125,5.771488189697266,-8.886942863464355,2.809173822402954
1770950702371647700,16.302647705078126,7.202396392822266,-14.337793350219727,1.306481122970581
1770950702390615300,16.321615234375,7.211967468261719,-18.051454544067383,0.6891329288482666
1770950702409582800,16.340582763671875,7.939385414123535,-19.826929092407227,1.832902193069458
1770950702428550400,16.35955029296875,3.4408788681030273,-19.42493438720703,4.508078098297119
1770950702447518000,16.37851806640625,-1.8137595653533936,-17.75952911376953,8.317451477050781
1770950702466485500,16.397485595703124,-1.832902193069458,-16.252052307128906,8.776873588562012
1770950702485453000,16.416453125,1.5553346872329712,-12.815958023071289,5.249852657318115
1770950702504420600,16.435420654296873,3.1250264644622803,-7.680960655212402,6.489335060119629
1770950702523388000,16.454387939453124,1.770688772201538,-5.613562107086182,6.293123722076416
1770950702542355500,16.47335546875,0.14835500717163086,-3.9146578311920166,5.197210788726807
1770950702561323000,16.492322998046873,-0.30149564146995544,-2.5986053943634033,3.3068809509277344
1770950702580290600,16.51129052734375,-0.07178468257188797,-1.8807586431503296,1.5409778356552124
1770950702599258000,16.530258056640626,1.0289137363433838,-1.124626636505127,1.3399807214736938
1770950702618225700,16.5492255859375,1.545763373374939,-0.038285162299871445,2.469393014907837
1770950702637193200,16.568193115234376,1.6462619304656982,0.4737788736820221,3.2925238609313965
1770950702656160800,16.587160888671875,1.4069796800613403,-0.25363919138908386,2.421536445617676
1770950702675128300,16.60612841796875,0.2105683982372284,-1.3351950645446777,1.4117653369903564
1770950702694096000,16.625095947265624,-0.41156548261642456,-2.6847469806671143,1.0911271572113037
1770950702713063400,16.6440634765625,-0.8327022790908813,-6.867401123046875,0.8566305041313171
1770950702732031000,16.663031005859374,0.40677985548973083,-21.18126678466797,0.7704889178276062
1770950702750998300,16.681998291015624,6.0777692794799805,-21.525833129882812,3.6945180892944336
1770950702769965800,16.7009658203125,16.285551071166992,-15.060425758361816,3.675375461578369
1770950702788933400,16.719933349609374,15.017354965209961,-9.997213363647461,1.6654045581817627
1770950702807901000,16.73890087890625,8.34138011932373,-8.451449394226074,2.1678972244262695
1770950702826868500,16.757868408203127,-2.4741785526275635,-7.5804619789123535,2.981456995010376
1770950702845836000,16.7768359375,-5.91505765914917,-7.255038261413574,6.374479293823242
1770950702864803600,16.795803466796876,-10.518848419189453,-9.32722282409668,8.422736167907715
1770950702883771100,16.814771240234375,-5.608776092529297,-13.313665390014648,10.442277908325195
1770950702902738700,16.83373876953125,30.742984771728516,-29.07758140563965,7.800601959228516
1770950702921706200,16.852706298828124,-0.02392822690308094,-17.812171936035156,3.8572301864624023
1770950702940673800,16.871673828125,-7.853243827819824,-8.202595710754395,3.641875982284546
1770950702959641300,16.890641357421874,-4.6995038986206055,-5.240281581878662,2.3880369663238525
1770950702978608600,16.909608642578124,-5.326423168182373,-7.814958572387695,3.1728827953338623
1770950702997576200,16.928576171875,-3.871587038040161,-12.849457740783691,3.4121651649475098
1770950703016543700,16.947543701171874,1.7228323221206665,-11.590832710266113,1.8999011516571045
1770950703035511300,16.96651123046875,4.59421968460083,-9.56650447845459,0.914058268070221
1770950703054478800,16.985478759765623,4.776073932647705,-8.394021987915039,1.2538390159606934
1770950703073446400,17.0044462890625,2.8761727809906006,-6.652047157287598,3.799802303314209
1770950703092414000,17.0234140625,4.2592244148254395,-4.316651821136475,4.838287353515625
1770950703111381500,17.042381591796875,5.144568920135498,-3.2590243816375732,3.680161237716675
1770950703130349000,17.06134912109375,1.0815558433532715,-4.517649173736572,1.7324036359786987
1770950703149316600,17.080316650390625,-0.25363919138908386,-5.551348686218262,0.641276478767395
1770950703168284200,17.0992841796875,-0.009571290574967861,-6.766902446746826,-0.2105683982372284
1770950703187251700,17.118251708984374,3.3308091163635254,-9.212367057800293,-1.3543375730514526
1770950703206219000,17.137218994140625,4.618147850036621,-10.241280555725098,-0.6795616149902344
1770950703225186600,17.1561865234375,2.421536445617676,-8.427521705627441,2.0195422172546387
1770950703244154000,17.175154052734374,4.46979284286499,-7.456035137176514,3.014956474304199
1770950703263121700,17.19412158203125,7.269395351409912,-9.595218658447266,2.321038007736206
1770950703282089200,17.213089111328124,6.723831653594971,-14.371293067932129,1.0719845294952393
1770950703301056800,17.232056884765626,8.805587768554688,-17.697317123413086,2.4119651317596436
1770950703320024300,17.2510244140625,6.058627128601074,-19.740787506103516,3.4743785858154297
1770950703338991900,17.269991943359376,0.727418065071106,-19.161724090576172,6.226124286651611
1770950703357959400,17.28895947265625,-1.4644074440002441,-17.7356014251709,8.23130989074707
1770950703376927000,17.307927001953125,-3.0388846397399902,-14.940784454345703,7.671389579772949
1770950703395894300,17.326894287109376,2.0482561588287354,-10.724631309509277,5.134997367858887
1770950703414861800,17.34586181640625,2.3880369663238525,-6.561119556427002,5.364708423614502
1770950703433829400,17.364829345703125,2.225325107574463,-4.752145767211914,4.4650068283081055
1770950703452797000,17.383796875,0.550349235534668,-3.091526746749878,3.7806596755981445
1770950703471764500,17.402764404296875,0.641276478767395,-2.6321048736572266,2.3976082801818848
1770950703490732000,17.42173193359375,0.760917603969574,-1.852044701576233,1.4117653369903564
1770950703509699600,17.440699462890624,1.5361921787261963,-1.4213366508483887,1.2251251935958862
1770950703528667100,17.459667236328126,1.4500504732131958,-0.5264210104942322,2.7182464599609375
1770950703547634700,17.478634765625,0.43549370765686035,-0.09092725813388824,3.34995174407959
1770950703566602000,17.49760205078125,0.22013968229293823,-0.3158525824546814,3.297309637069702
1770950703585569500,17.516569580078126,0.7178468108177185,-1.526620864868164,3.1250264644622803
1770950703604537000,17.535537109375,-0.2727817893028259,-4.436293125152588,1.8711873292922974
1770950703623504600,17.554504638671876,-1.0193424224853516,-13.773087501525879,-0.2727817893028259
1770950703642472200,17.57347216796875,2.306680917739868,-19.927427291870117,1.789831280708313
1770950703661439700,17.592439697265625,7.714460372924805,-14.940784454345703,2.8522446155548096
1770950703680407300,17.6114072265625,12.56710433959961,-11.174481391906738,3.6849467754364014
1770950703699374800,17.630374755859375,11.289337158203125,-9.28893756866455,3.9194436073303223
1770950703718342400,17.64934228515625,3.397808074951172,-8.49452018737793,4.7712883949279785
1770950703737309700,17.668309814453124,-3.4169507026672363,-9.408578872680664,5.886343479156494
1770950703756277200,17.68727734375,-6.86261510848999,-11.68175983428955,10.169496536254883
1770950703775244800,17.706244873046874,-0.5551348328590393,-13.773087501525879,8.240880966186523
1770950703794212400,17.72521240234375,18.908084869384766,-22.210180282592773,1.5649060010910034
1770950703813180000,17.744179931640623,-0.7896314859390259,-21.683759689331055,1.7371892929077148
1770950703832147500,17.7631474609375,-3.7567315101623535,-10.040284156799316,4.024727821350098
1770950703851115000,17.782114990234376,-4.555934429168701,-5.312066078186035,4.182653903961182
1770950703870082600,17.80108251953125,-6.704689025878906,-7.3746795654296875,4.316651821136475
1770950703889049900,17.8200498046875,-4.058227062225342,-11.447263717651367,4.101297855377197
1770950703908017400,17.839017333984376,5.771488189697266,-13.007384300231934,2.0243279933929443
1770950703926985000,17.85798486328125,10.829915046691895,-11.858829498291016,-0.698704183101654
1770950703945952500,17.876952392578126,0.8566305041313171,-8.441878318786621,1.5601203441619873
1770950703964920000,17.895920166015625,0.14356936514377594,-6.4701924324035645,2.2444677352905273
1770950703983887600,17.9148876953125,4.374079704284668,-4.9292144775390625,2.4119651317596436
1770950704002855200,17.933855224609374,5.034498691558838,-4.479363918304443,2.7804598808288574
1770950704021822500,17.952822509765625,0.9427721500396729,-5.498706340789795,2.2396819591522217
1770950704040790000,17.9717900390625,-0.7465606927871704,-5.422136306762695,1.9860427379608154
1770950704059757600,17.990757568359374,2.0578274726867676,-6.5180487632751465,0.5024927258491516
1770950704078725000,18.00972509765625,4.967499732971191,-8.906085968017578,0.11964113265275955
1770950704097692700,18.028692626953124,2.4837498664855957,-7.992027759552002,1.7467604875564575
1770950704116660200,18.04766015625,0.4833501875400543,-6.7621169090271,1.9764715433120728
1770950704135627800,18.066627685546877,3.5988051891326904,-8.102097511291504,1.4931213855743408
1770950704154595000,18.085594970703124,7.456035137176514,-10.193424224853516,1.3304094076156616
1770950704173562600,18.104562744140626,5.857629776000977,-12.696316719055176,0.8039883971214294
1770950704192530200,18.1235302734375,6.98704195022583,-15.385849952697754,1.5601203441619873
1770950704211497700,18.142497802734376,8.403593063354492,-18.12802505493164,2.7900311946868896
1770950704230465300,18.16146533203125,2.421536445617676,-18.549161911010742,5.034498691558838
1770950704249432800,18.180432861328125,0.9284151792526245,-17.72124481201172,6.98704195022583
1770950704268400400,18.199400390625,-1.6414763927459717,-16.5391902923584,9.499505996704102
1770950704287367700,18.21836767578125,0.1579262912273407,-14.376078605651855,4.843072891235352
1770950704306335200,18.237335205078125,1.100698471069336,-8.015955924987793,4.3788652420043945
1770950704325302800,18.256302734375,3.594019651412964,-4.445864677429199,4.599005222320557
1770950704344270300,18.275270263671874,2.833101987838745,-4.503292083740234,4.728217601776123
1770950704363237600,18.294237548828125,1.679761528968811,-5.221138954162598,3.7471601963043213
1770950704382205200,18.313205078125,0.7704889178276062,-4.110869407653809,3.019742250442505
1770950704401172700,18.3321728515625,0.4307080805301666,-2.4358935356140137,2.3306093215942383
1770950704420140300,18.351140380859373,0.4785645306110382,-0.9427721500396729,3.0388846397399902
1770950704439107800,18.37010791015625,0.5742774605751038,-0.6939185857772827,3.407379388809204
1770950704458075400,18.389075439453126,0.8949156403541565,-1.2251251935958862,3.153740167617798
1770950704477042700,18.408042724609373,1.4787644147872925,-2.1200408935546875,2.9240293502807617
1770950704496010200,18.42701025390625,1.2346965074539185,-2.5842485427856445,2.6225335597991943
1770950704514977800,18.445977783203126,0.6269195079803467,-4.527220249176025,1.5744773149490356
1770950704533945300,18.4649453125,-0.19142581522464752,-11.648261070251465,-0.20099709928035736
1770950704552913000,18.483912841796876,0.5886343717575073,-16.47697639465332,1.8472590446472168
1770950704571880400,18.50288037109375,4.900500774383545,-14.36172103881836,2.139183521270752
1770950704590847700,18.52184765625,9.863214492797852,-10.691131591796875,2.469393014907837
1770950704609815300,18.540815185546876,9.21715259552002,-7.800601959228516,1.7419748306274414
1770950704628782800,18.559782958984375,9.882357597351074,-7.733603000640869,3.4983067512512207
1770950704647750400,18.57875048828125,7.121040344238281,-10.700702667236328,6.63769006729126
1770950704666718000,18.597718017578124,-4.153940200805664,-11.547761917114258,7.240681171417236
1770950704685685200,18.616685302734375,-7.628318786621094,-11.078768730163574,8.183453559875488
1770950704704652800,18.63565283203125,-2.6273193359375,-8.12123966217041,3.862015724182129
1770950704723620400,18.654620361328124,-3.0245277881622314,-12.55274772644043,4.780859470367432
1770950704742588000,18.673587890625,41.71168518066406,-39.586856842041016,-3.651447296142578
1770950704761555500,18.692555419921874,-10.360921859741211,-12.581461906433105,3.90987229347229
1770950704780522800,18.711522705078124,-6.613761901855469,-6.2500529289245605,3.436093330383301
1770950704799490300,18.730490234375,-5.838487148284912,-7.082755088806152,5.383851051330566
1770950704818457900,18.749457763671874,-4.086941242218018,-9.69093132019043,7.412964344024658
1770950704837425400,18.76842529296875,3.16331148147583,-12.696316719055176,4.445864677429199
1770950704856393000,18.78739306640625,5.737988471984863,-12.050254821777344,1.4213366508483887
1770950704875360300,18.8063603515625,2.761317253112793,-11.064412117004395,1.435693621635437
1770950704894327800,18.825327880859376,1.94297194480896,-8.446663856506348,2.0195422172546387
1770950704913295400,18.84429541015625,1.765903115272522,-5.594419479370117,2.9240293502807617
1770950704932263000,18.863262939453126,1.828116536140442,-4.508078098297119,3.924229145050049
1770950704951230200,18.882230224609376,1.8041882514953613,-5.091926574707031,3.1489546298980713
1770950704970197800,18.90119775390625,2.115255117416382,-5.972485542297363,1.521835207939148
1770950704989165300,18.920165283203126,2.1535403728485107,-6.029912948608398,0.02871387079358101
1770950705008132900,18.9391328125,2.287538528442383,-6.580262184143066,0.4546363055706024
1770950705027100200,18.95810009765625,2.68953275680542,-7.436892986297607,1.124626636505127
1770950705046067700,18.977067626953126,1.7754744291305542,-7.221538543701172,1.7754744291305542
1770950705065035300,18.99603515625,1.9525432586669922,-6.297909259796143,1.2921242713928223
1770950705084002800,19.0150029296875,1.8137595653533936,-5.972485542297363,1.8472590446472168
1770950705102970400,19.033970458984374,0.7992027401924133,-7.082755088806152,1.191625714302063
1770950705121937700,19.052937744140625,1.8137595653533936,-9.32722282409668,0.1818545162677765
1770950705140905200,19.0719052734375,3.445664644241333,-11.997612953186035,-1.129412293434143
1770950705159872800,19.090872802734374,6.628118515014648,-14.591432571411133,-0.11964113265275955
1770950705178840300,19.10984033203125,8.063812255859375,-17.32403564453125,1.5170495510101318
1770950705197807600,19.1288076171875,7.255038261413574,-19.884355545043945,3.7184464931488037
1770950705216775200,19.147775146484374,3.0963125228881836,-19.63071632385254,7.719245910644531
1770950705235742700,19.16674267578125,2.6464617252349854,-18.979869842529297,10.868200302124023
1770950705254710300,19.185710205078124,3.2303106784820557,-15.117853164672852,9.944570541381836
1770950705273677600,19.204677490234374,2.5746772289276123,-8.590232849121094,7.618747234344482
1770950705292645000,19.22364501953125,2.335394859313965,-4.292723655700684,5.886343479156494
1770950705311612700,19.24261279296875,3.9625144004821777,-3.814159393310547,4.814359188079834
1770950705330580000,19.261580078125,3.436093330383301,-5.9437713623046875,4.316651821136475
1770950705349547500,19.280547607421877,1.7467604875564575,-6.97268533706665,3.359523057937622
1770950705368515000,19.29951513671875,1.8999011516571045,-5.292923450469971,3.0005996227264404
1770950705387482600,19.318482666015626,1.4739787578582764,-3.177668571472168,3.3164522647857666
1770950705406450000,19.337449951171877,1.770688772201538,-2.5698914527893066,3.0340991020202637
1770950705425417500,19.35641748046875,1.8999011516571045,-3.4169507026672363,2.56510591506958
1770950705444385000,19.375385009765626,2.5459632873535156,-4.374079704284668,1.94297194480896
1770950705463352300,19.394352294921877,2.8187451362609863,-5.000999450683594,1.0863415002822876
1770950705482320000,19.41331982421875,2.2396819591522217,-4.728217601776123,0.7130611538887024
1770950705501287400,19.432287353515626,0.8901300430297852,-4.168296813964844,0.7513462901115417
1770950705520255000,19.4512548828125,-0.04785645380616188,-4.541577339172363,0.24885354936122894
1770950705539222300,19.47022216796875,0.43549370765686035,-6.1399827003479,0.3445664644241333
1770950705558189800,19.48918994140625,1.0863415002822876,-9.80100154876709,0.02871387079358101
1770950705577157400,19.508157470703125,2.273181438446045,-10.939985275268555,1.3304094076156616
1770950705596124700,19.527124755859376,3.2685956954956055,-8.839086532592773,2.68953275680542
1770950705615092200,19.54609228515625,5.436492919921875,-8.685946464538574,3.8428730964660645
1770950705634059800,19.565059814453125,8.74337387084961,-8.762516975402832,5.111069202423096
1770950705653027300,19.58402734375,11.188838958740234,-7.542177200317383,5.307280540466309
1770950705671994600,19.60299462890625,9.748359680175781,-7.0683979988098145,5.20678186416626
1770950705690962200,19.621962158203125,5.742774486541748,-9.81535816192627,5.9198431968688965
1770950705709929700,19.6409296875,-3.82373046875,-12.222537994384766,5.259424209594727
1770950705728897000,19.65989697265625,-7.628318786621094,-13.04088306427002,8.599804878234863
1770950705747864600,19.678864501953125,-3.0580272674560547,-9.41336441040039,7.738388538360596
1770950705766832000,19.69783203125,-2.0865414142608643,-10.700702667236328,2.4646072387695312
1770950705785799400,19.71679931640625,28.981868743896484,-31.20719337463379,1.196411371231079
1770950705804767000,19.73576708984375,-5.828916072845459,-16.443477630615234,4.551148891448975
1770950705823734500,19.754734619140624,-5.182853698730469,-8.982656478881836,3.5461630821228027
1770950705842701800,19.773701904296875,-3.2303106784820557,-9.533005714416504,4.287938117980957
1770950705861669400,19.79266943359375,-1.7132610082626343,-12.55274772644043,4.54636287689209
1770950705880637000,19.811636962890624,-0.1579262912273407,-12.53839111328125,3.4121651649475098
1770950705899604200,19.830604248046875,0.8374879360198975,-10.164710998535156,2.2540390491485596
1770950705918571500,19.849571533203125,1.8616160154342651,-8.786444664001465,1.770688772201538
1770950705937539000,19.8685390625,2.0961127281188965,-8.599804878234863,2.455035924911499
1770950705956506600,19.887506591796875,2.335394859313965,-8.528019905090332,2.8522446155548096
1770950705975474000,19.906473876953125,2.6368906497955322,-7.393822193145752,3.0005996227264404
1770950705994441500,19.92544140625,2.306680917739868,-6.537191390991211,3.139383316040039
1770950706013409000,19.944408935546875,1.9381862878799438,-6.417550563812256,2.5698914527893066
1770950706032376300,19.963376220703125,1.8185452222824097,-7.283751964569092,1.8376877307891846
1770950706051344000,19.98234375,1.8711873292922974,-8.446663856506348,1.4069796800613403
1770950706070311400,20.0013115234375,2.6464617252349854,-9.418149948120117,1.4117653369903564
1770950706089278700,20.02027880859375,3.9290146827697754,-9.336793899536133,1.0815558433532715
1770950706108246300,20.039246337890624,3.895515203475952,-8.24566650390625,0.8231309652328491
1770950706127213800,20.0582138671875,1.2873386144638062,-6.695117950439453,1.703689694404602
1770950706146181000,20.07718115234375,-0.5838487148284912,-5.905486106872559,1.828116536140442
1770950706165148700,20.096148681640624,-1.3399807214736938,-5.8959150314331055,2.062613010406494
1770950706184116200,20.1151162109375,-1.2346965074539185,-6.728617191314697,1.1868400573730469
1770950706203083500,20.13408349609375,0.02392822690308094,-7.939385414123535,-0.5120640397071838
1770950706222051000,20.153051025390624,1.1724830865859985,-7.312466144561768,-0.7657032608985901
1770950706241018400,20.172018310546875,1.7419748306274414,-7.11146879196167,0.2679961323738098
1770950706259986000,20.19098583984375,2.517249345779419,-8.74337387084961,2.1918256282806396
1770950706278953500,20.209953369140624,5.9437713623046875,-11.34676456451416,3.4983067512512207
1770950706297920800,20.228920654296875,10.566704750061035,-14.12243938446045,3.78544545173645
1770950706316888300,20.247888427734374,9.633503913879395,-16.36212158203125,5.039284706115723
1770950706335855900,20.26685595703125,6.570691108703613,-18.68315887451172,4.498506546020508
1770950706354823200,20.2858232421875,2.196611166000366,-18.60658836364746,6.154339790344238
1770950706373790700,20.304790771484374,1.1676974296569824,-16.4913330078125,7.848458290100098
1770950706392758000,20.323758056640624,-0.0526420995593071,-14.888142585754395,9.169296264648438
1770950706411725600,20.3427255859375,0.9810572862625122,-13.02652645111084,7.154539585113525
1770950706430693000,20.361693115234374,1.5840486288070679,-10.346565246582031,4.144368648529053
1770950706449660400,20.380660400390624,3.4791641235351562,-8.551948547363281,3.359523057937622
1770950706468628000,20.3996279296875,3.838087558746338,-8.001599311828613,2.2444677352905273
1770950706487595500,20.418595458984374,2.3258235454559326,-7.551748275756836,1.4644074440002441
1770950706506562800,20.437562744140624,0.9906286001205444,-6.0538411140441895,1.765903115272522
1770950706525530400,20.4565302734375,1.277767300605774,-3.5605201721191406,3.1345977783203125
1770950706544497700,20.47549755859375,1.4644074440002441,-1.3639088869094849,4.570291042327881
1770950706563465200,20.49446533203125,1.6893328428268433,-1.196411371231079,4.2592244148254395
1770950706582432500,20.5134326171875,2.4646072387695312,-2.407179594039917,2.9766714572906494
1770950706601400000,20.532400146484374,2.60339093208313,-3.3930225372314453,2.2157537937164307
1770950706620367600,20.55136767578125,2.249253273010254,-3.8333017826080322,1.7467604875564575
1770950706639335000,20.5703349609375,2.00518536567688,-3.311666488647461,2.321038007736206
1770950706658302500,20.589302490234374,1.4452649354934692,-3.3068809509277344,2.517249345779419
1770950706677269800,20.608269775390625,1.7467604875564575,-4.560719966888428,2.1296122074127197
1770950706696237300,20.6272373046875,1.4021940231323242,-6.393621921539307,1.703689694404602
1770950706715204900,20.646204833984374,1.6414763927459717,-8.819944381713867,0.6747759580612183
1770950706734172200,20.665172119140625,2.321038007736206,-11.289337158203125,0.40677985548973083
1770950706753139700,20.6841396484375,2.4598217010498047,-11.91625690460205,0.7752745151519775
1770950706772107000,20.70310693359375,2.933600664138794,-8.781659126281738,1.3399807214736938
1770950706791074600,20.722074462890625,3.2159535884857178,-7.255038261413574,2.5746772289276123
1770950706810041900,20.741041748046875,4.398007869720459,-7.877171993255615,3.895515203475952
1770950706829009400,20.760009521484374,6.857829570770264,-7.288537979125977,5.044070243835449
1770950706847977000,20.77897705078125,6.565905570983887,-8.063812255859375,4.666004180908203
1770950706866944300,20.7979443359375,6.154339790344238,-11.772686958312988,6.3122663497924805
1770950706885911800,20.816911865234374,4.508078098297119,-17.257036209106445,8.159524917602539
1770950706904879000,20.835879150390625,-3.6323046684265137,-13.816158294677734,8.226524353027344
1770950706923846700,20.8548466796875,-3.9433717727661133,-8.839086532592773,3.9672999382019043
1770950706942814000,20.87381396484375,5.134997367858887,-8.24566650390625,4.350151538848877
1770950706961781500,20.892781494140625,1.2634103298187256,-14.43350601196289,4.249652862548828
1770950706980749000,20.9117490234375,5.623133182525635,-24.875783920288086,-2.273181438446045
1770950706999716400,20.93071630859375,-4.680361270904541,-14.237295150756836,-0.11485548317432404
1770950707018684000,20.949683837890625,-4.077369689941406,-9.174081802368164,3.469592809677124
1770950707037651200,20.968651123046875,-3.0245277881622314,-9.547362327575684,6.364908218383789
1770950707056618800,20.98761865234375,-0.8614161610603333,-11.58126163482666,7.063612461090088
1770950707075586000,21.0065859375,1.4021940231323242,-11.284551620483398,5.623133182525635
1770950707094553600,21.0255537109375,2.1535403728485107,-10.571490287780762,3.7567315101623535
1770950707113521000,21.04452099609375,1.7802600860595703,-9.66221809387207,2.6560330390930176
1770950707132488400,21.063488525390625,1.430907964706421,-8.303094863891602,1.8999011516571045
1770950707151455700,21.082455810546875,1.2681959867477417,-7.159325122833252,1.8951154947280884
1770950707170423300,21.10142333984375,1.2729816436767578,-6.943971157073975,1.923829436302185
1770950707189390600,21.120390625,1.2873386144638062,-7.5565338134765625,1.7563318014144897
1770950707208358100,21.139358154296875,1.124626636505127,-8.154739379882812,1.6414763927459717
1770950707227325400,21.158325439453126,1.1629117727279663,-8.389236450195312,1.8185452222824097
1770950707246293000,21.17729296875,1.9812572002410889,-8.14516830444336,2.196611166000366
1770950707265260300,21.19626025390625,3.6993038654327393,-7.719245910644531,2.0865414142608643
1770950707284227800,21.215227783203126,5.072783946990967,-8.23130989074707,2.3306093215942383
1770950707303195400,21.2341953125,2.56510591506958,-8.882157325744629,3.1250264644622803
1770950707322162700,21.25316259765625,-0.08614161610603333,-8.700303077697754,2.919243574142456
1770950707341130200,21.272130126953126,-0.8470591902732849,-7.953742504119873,1.4644074440002441
1770950707360097500,21.29109765625,-0.5742774605751038,-7.432106971740723,0.16271193325519562
1770950707379065000,21.310065185546875,-0.13878370821475983,-7.4464640617370605,-0.32542386651039124
1770950707398032400,21.329032470703126,0.8949156403541565,-8.236095428466797,-0.38763725757598877
1770950707417000000,21.348,0.9906286001205444,-8.638090133666992,0.6173482537269592
1770950707435967200,21.36696728515625,1.3112667798995972,-8.60459041595459,1.5792629718780518
1770950707454934800,21.385934814453126,3.2781670093536377,-7.9250288009643555,2.2923240661621094
1770950707473902000,21.404902099609377,4.292723655700684,-7.207181930541992,2.6847469806671143
1770950707492869600,21.42386962890625,4.230510234832764,-8.087740898132324,3.22552490234375
1770950707511837000,21.4428369140625,3.651447296142578,-9.753145217895508,3.493520975112915
1770950707530804500,21.461804443359377,5.402993679046631,-13.122239112854004,3.4504501819610596
1770950707549771800,21.480771728515624,5.359922885894775,-15.768701553344727,3.579662561416626
1770950707568739300,21.4997392578125,6.015556335449219,-16.69711685180664,4.512863636016846
1770950707587706600,21.51870654296875,5.024927616119385,-16.831113815307617,5.651846885681152
1770950707606674200,21.537674072265624,1.301695466041565,-16.505691528320312,7.240681171417236
1770950707625641500,21.556641357421874,-0.2153540402650833,-15.491133689880371,8.015955924987793
1770950707644609000,21.575609130859377,1.6414763927459717,-12.79202938079834,7.479963779449463
1770950707663576300,21.594576416015624,2.5986053943634033,-10.475777626037598,6.226124286651611
1770950707682543900,21.6135439453125,1.9334007501602173,-8.958727836608887,4.110869407653809
1770950707701511200,21.63251123046875,2.7517459392547607,-8.02074146270752,2.8187451362609863
1770950707720478700,21.651478759765624,2.9479575157165527,-7.4464640617370605,2.2061824798583984
1770950707739446000,21.670446044921874,1.6031911373138428,-7.322037220001221,2.2205393314361572
1770950707758413300,21.689413330078125,0.8374879360198975,-5.972485542297363,2.5986053943634033
1770950707777380900,21.708380859375,1.1437692642211914,-4.177868366241455,2.68953275680542
1770950707796348200,21.72734814453125,1.5792629718780518,-2.8666014671325684,2.6177480220794678
1770950707815315700,21.746315673828125,2.163111686706543,-3.019742250442505,2.445464849472046
1770950707834283000,21.765282958984375,1.6845471858978271,-2.9288148880004883,3.1824541091918945
1770950707853250600,21.78425048828125,1.5553346872329712,-2.124826431274414,2.809173822402954
1770950707872217900,21.8032177734375,2.282752752304077,-1.9669002294540405,3.1489546298980713
1770950707891185400,21.822185302734376,2.1918256282806396,-2.7661030292510986,4.063013076782227
1770950707910152700,21.841152587890626,2.455035924911499,-4.790431022644043,4.130012035369873
1770950707929120300,21.860120361328125,2.282752752304077,-6.747759819030762,3.627519130706787
1770950707948087600,21.879087646484376,2.297109842300415,-8.757730484008789,2.5124638080596924
1770950707967054800,21.898054931640626,3.263810157775879,-12.337393760681152,0.8135597109794617
1770950707986022400,21.9170224609375,4.508078098297119,-12.366106986999512,0.038285162299871445
1770950708004989700,21.93598974609375,3.6370904445648193,-8.504091262817383,0.1818545162677765
1770950708023957200,21.954957275390626,2.3880369663238525,-7.724031448364258,1.0432707071304321
1770950708042924500,21.973924560546877,2.4502503871917725,-8.078168869018555,2.2540390491485596
1770950708061892000,21.99289208984375,3.1106693744659424,-7.685746192932129,3.4408788681030273
1770950708080859400,22.011859375,5.953342914581299,-7.585247993469238,5.06799840927124
1770950708099827000,22.030826904296877,7.704888820648193,-7.465606689453125,5.465207099914551
1770950708118794200,22.049794189453124,5.72841739654541,-7.637889862060547,3.2159535884857178
1770950708137761800,22.06876171875,2.967100143432617,-8.891729354858398,2.7326035499572754
1770950708156729000,22.08772900390625,1.856830358505249,-11.523834228515625,4.364508628845215
1770950708175696400,22.1066962890625,1.0336993932724,-15.65384578704834,7.566105365753174
1770950708194664000,22.125663818359374,-2.478964328765869,-13.299307823181152,8.23130989074707
1770950708213631200,22.14463134765625,-0.20099709928035736,-7.489534854888916,2.9479575157165527
1770950708232598800,22.163598876953124,-2.4406790733337402,-7.140182971954346,-0.5024927258491516
1770950708251566000,22.182566162109374,-2.091326951980591,-20.061424255371094,1.5792629718780518
1770950708270533600,22.20153369140625,13.935798645019531,-28.407590866088867,0.5455635786056519
1770950708289501000,22.2205009765625,0.8087740540504456,-13.97408390045166,4.225724697113037
1770950708308468200,22.23946826171875,-3.9768712520599365,-8.025527000427246,5.972485542297363
1770950708327435800,22.258435791015625,-2.9862427711486816,-7.637889862060547,5.182853698730469
1770950708346403000,22.277403076171876,-2.612962245941162,-10.001998901367188,6.120840549468994
1770950708365370600,22.29637060546875,-0.794417142868042,-10.863414764404297,5.225924491882324
1770950708384338000,22.315337890625,0.8327022790908813,-10.030712127685547,3.871587038040161
1770950708403305200,22.33430517578125,0.9332008361816406,-8.303094863891602,2.172683000564575
1770950708422272800,22.353272705078126,0.8231309652328491,-7.412964344024658,1.2634103298187256
1770950708441240000,22.372239990234377,1.0480563640594482,-6.790830612182617,2.407179594039917
1770950708460207600,22.39120751953125,1.3495519161224365,-6.589833736419678,4.01037073135376
1770950708479175000,22.4101748046875,1.919043779373169,-6.814758777618408,4.249652862548828
1770950708498142200,22.42914208984375,2.00518536567688,-8.164310455322266,2.799602508544922
1770950708517109800,22.44810986328125,1.8185452222824097,-9.154939651489258,1.9621145725250244
1770950708536077000,22.4670771484375,1.6079767942428589,-8.805587768554688,0.97148597240448
1770950708555044600,22.486044677734377,1.5744773149490356,-7.9585280418396,0.03349951654672623
1770950708574012000,22.505011962890624,2.5986053943634033,-9.389435768127441,-0.14356936514377594
1770950708592979200,22.523979248046874,2.871387243270874,-10.092926025390625,1.28255295753479
1770950708611946800,22.54294677734375,2.201396942138672,-9.040083885192871,1.5074782371520996
1770950708630914000,22.5619140625,1.2251251935958862,-7.039684295654297,1.2538390159606934
1770950708649881600,22.580881591796874,0.7465606927871704,-5.771488189697266,0.8183453679084778
1770950708668849000,22.599848876953125,-0.04785645380616188,-5.546562671661377,1.2442678213119507
1770950708687816200,22.618816162109376,-0.7465606927871704,-7.412964344024658,1.7850457429885864
1770950708706783700,22.63778369140625,-0.5072783827781677,-8.858229637145996,2.0099709033966064
1770950708725751000,22.6567509765625,1.454836130142212,-9.255437850952148,1.129412293434143
1770950708744718300,22.67571826171875,1.7132610082626343,-7.432106971740723,0.7800601720809937
1770950708763686000,22.694685791015626,2.9048867225646973,-7.523034572601318,1.3304094076156616
1770950708782653200,22.713653076171877,5.632704734802246,-8.97787094116211,2.1343977451324463
1770950708801620700,22.732620849609376,8.288737297058105,-11.739188194274902,2.895315408706665
1770950708820588000,22.751588134765626,6.915257453918457,-15.491133689880371,2.933600664138794
1770950708839555300,22.770555419921877,6.144768714904785,-18.017953872680664,4.321437835693359
1770950708858523000,22.78952294921875,4.780859470367432,-19.262222290039062,5.690132141113281
1770950708877490200,22.808490234375,1.8185452222824097,-18.53480339050293,9.523433685302734
1770950708896457500,22.82745751953125,-0.1579262912273407,-17.036897659301758,11.528619766235352
1770950708915425000,22.846425048828124,2.9479575157165527,-15.51506233215332,7.585247993469238
1770950708934392300,22.865392333984374,2.6703901290893555,-12.299108505249023,3.8763725757598877
1770950708953360000,22.88435986328125,2.7086751461029053,-8.709874153137207,3.2303106784820557
1770950708972327200,22.9033271484375,3.4121651649475098,-5.627918720245361,2.3497519493103027
1770950708991294500,22.92229443359375,2.8043880462646484,-5.647061347961426,1.215553879737854
1770950709010262000,22.941261962890625,1.794616937637329,-6.168696880340576,1.7994025945663452
1770950709029229300,22.960229248046875,0.8709874153137207,-5.053641319274902,3.019742250442505
1770950709048196600,22.979196533203126,0.7752745151519775,-2.56510591506958,4.01037073135376
1770950709067164200,22.9981640625,1.1868400573730469,-0.8327022790908813,4.082155227661133
1770950709086131500,23.01713134765625,1.9142581224441528,-0.5838487148284912,3.5126636028289795
1770950709105098800,23.0360986328125,2.3880369663238525,-1.8089739084243774,2.517249345779419
1770950709124066300,23.05506640625,2.6177480220794678,-2.6081767082214355,2.3784656524658203
1770950709143033600,23.07403369140625,2.641676187515259,-3.7088751792907715,2.3976082801818848
1770950709162001000,23.0930009765625,2.2540390491485596,-4.972285270690918,2.785245656967163
1770950709180968400,23.111968505859377,1.588834285736084,-5.929414749145508,3.239881753921509
1770950709199935700,23.130935791015624,0.8662018179893494,-7.087540626525879,2.4646072387695312
1770950709218903000,23.149903076171874,1.7084753513336182,-9.949356079101562,0.6556333899497986
1770950709237870600,23.16887060546875,3.0484559535980225,-13.1365966796875,-0.6221339106559753
1770950709256838000,23.187837890625,3.3164522647857666,-11.47119140625,0.30628129839897156
1770950709275805200,23.20680517578125,2.9144580364227295,-8.212167739868164,1.7180466651916504
1770950709294772700,23.225772705078125,4.60857629776001,-7.465606689453125,3.005385160446167
1770950709313740000,23.244739990234375,7.168896675109863,-7.331608772277832,4.48414945602417
1770950709332707300,23.263707275390626,7.628318786621094,-6.92482852935791,5.584847927093506
1770950709351675000,23.2826748046875,6.714260101318359,-6.652047157287598,6.135197162628174
1770950709370642200,23.30164208984375,4.890929698944092,-8.571090698242188,5.709274768829346
1770950709389609500,23.320609375,2.794816732406616,-12.720245361328125,5.656632900238037
1770950709408577000,23.339576904296877,-0.32542386651039124,-15.04128360748291,7.039684295654297
1770950709427544300,23.35854443359375,-3.7328033447265625,-13.677373886108398,7.561319351196289
1770950709446511600,23.37751171875,3.0628130435943604,-8.662017822265625,4.1491546630859375
1770950709465479000,23.39647900390625,-1.856830358505249,-7.8628153800964355,1.0001999139785767
1770950709484446500,23.415446533203124,-6.001199245452881,-17.639888763427734,3.077169895172119
1770950709503413800,23.434413818359374,3.5222349166870117,-24.617359161376953,1.2729816436767578
1770950709522381000,23.453381103515625,10.863414764404297,-14.658431053161621,1.0863415002822876
1770950709541348600,23.4723486328125,-4.4650068283081055,-10.52363395690918,5.19242525100708
1770950709560316000,23.49131591796875,-3.0867412090301514,-8.8438720703125,5.20678186416626
1770950709579283200,23.510283203125,-3.091526746749878,-8.441878318786621,4.426722049713135
1770950709598250800,23.529250732421875,-1.8807586431503296,-9.265008926391602,3.7471601963043213
1770950709617218000,23.548218017578126,0.2632105052471161,-10.222138404846191,3.507878065109253
1770950709636185300,23.567185302734377,2.273181438446045,-9.446864128112793,2.0578274726867676
1770950709655153000,23.58615283203125,2.4263222217559814,-8.303094863891602,1.3351950645446777
1770950709674120200,23.6051201171875,1.28255295753479,-7.489534854888916,1.674975872039795
1770950709693087500,23.62408740234375,0.6891329288482666,-6.920042991638184,2.7421748638153076
1770950709712054800,23.6430546875,1.129412293434143,-6.5419769287109375,3.2542388439178467
1770950709731022300,23.662022216796874,1.5696916580200195,-7.135396957397461,2.7421748638153076
1770950709749989600,23.68098974609375,0.7657032608985901,-7.843672752380371,2.3545374870300293
1770950709768957000,23.69995703125,0.4211367964744568,-8.135597229003906,1.6845471858978271
1770950709787924200,23.71892431640625,0.9188438653945923,-8.8438720703125,1.1198409795761108
1770950709806891800,23.737891845703125,2.7421748638153076,-9.844072341918945,0.6652047038078308
1770950709825859000,23.756859130859375,4.340580463409424,-9.533005714416504,0.2919243574142456
1770950709844826400,23.775826416015626,2.4981069564819336,-7.125825881958008,1.430907964706421
1770950709863794000,23.7947939453125,0.6173482537269592,-6.436692714691162,1.3591232299804688
1770950709882761200,23.81376123046875,0.32542386651039124,-6.881757736206055,2.062613010406494
1770950709901728500,23.832728515625,0.4450650215148926,-8.24566650390625,2.2779672145843506
1770950709920695800,23.85169580078125,0.727418065071106,-8.86780071258545,1.5601203441619873
1770950709939663400,23.870663330078123,1.5314065217971802,-8.384450912475586,0.9571290612220764
1770950709958630700,23.889630615234374,2.148754835128784,-7.886743545532227,1.3926228284835815
1770950709977598000,23.908597900390625,3.0388846397399902,-7.853243827819824,2.7278177738189697
1770950709996565500,23.9275654296875,6.149554252624512,-10.068997383117676,2.8187451362609863
1770950710015532800,23.94653271484375,9.547362327575684,-12.849457740783691,1.8472590446472168
1770950710034500000,23.9655,6.69990348815918,-15.448062896728516,2.1678972244262695
1770950710053467400,23.98446728515625,4.618147850036621,-16.907684326171875,4.268795490264893
1770950710072435000,24.00343505859375,1.6462619304656982,-17.82174301147461,4.005585193634033
1770950710091402200,24.02240234375,-0.3397808074951172,-17.233108520507812,7.226324558258057
1770950710110369500,24.04136962890625,-1.1341979503631592,-16.280765533447266,9.78664493560791
1770950710129336800,24.0603369140625,2.273181438446045,-15.567704200744629,9.21715259552002
1770950710148304100,24.07930419921875,2.5698914527893066,-13.414163589477539,6.106483459472656
1770950710167271700,24.098271728515623,2.029113531112671,-8.609375953674316,5.06799840927124
1770950710186239000,24.117239013671874,2.5938198566436768,-5.20678186416626,2.7900311946868896
1770950710205206300,24.136206298828125,0.8757730722427368,-4.761716842651367,0.8757730722427368
1770950710224173600,24.155173583984375,-0.16271193325519562,-5.134997367858887,0.8279166221618652
1770950710243141000,24.17414111328125,-0.2679961323738098,-4.2592244148254395,2.2444677352905273
1770950710262108400,24.1931083984375,0.09092725813388824,-3.014956474304199,3.321237802505493
1770950710281075700,24.21207568359375,0.5886343717575073,-1.828116536140442,4.091726779937744
1770950710300043000,24.23104296875,1.5649060010910034,-2.139183521270752,3.5605201721191406
1770950710319010600,24.250010498046876,1.2346965074539185,-1.832902193069458,2.933600664138794
1770950710337977900,24.268977783203123,0.7704889178276062,-1.0336993932724,3.675375461578369
1770950710356945200,24.287945068359374,-0.6125625967979431,-1.3112667798995972,3.2207393646240234
1770950710375912400,24.306912353515624,-0.397208571434021,-1.8185452222824097,2.3976082801818848
1770950710394879700,24.325879638671875,-1.1198409795761108,-4.158725738525391,1.8185452222824097
1770950710413847300,24.344847412109374,-1.062413215637207,-12.050254821777344,1.1102696657180786
1770950710432814600,24.363814697265624,4.704289436340332,-19.956140518188477,1.062413215637207
