time,seconds_elapsed,z,y,x
1770950686173473000,0.10447314453125,0,0,0
1770950686192440000,0.123440185546875,-0.46956968307495117,-0.14937734603881836,0.22389478981494904
1770950686211407000,0.142406982421875,0.7670364379882812,0.23106646537780762,-0.09915070235729218
1770950686230374100,0.1613740234375,0.601996898651123,0.11438846588134766,0.015098154544830322
1770950686258824700,0.18982470703125,-0.48691415786743164,-0.046877384185791016,-0.3838585913181305
1770950686277791700,0.208791748046875,-0.7444076538085938,0.34697508811950684,-0.3134899139404297
1770950686296758800,0.2277587890625,-0.32032299041748047,0.5175833702087402,-0.35181596875190735
1770950686315725800,0.246725830078125,0.13333606719970703,0.299879789352417,-0.3694995641708374
1770950686334692900,0.26569287109375,0.41602373123168945,0.252946138381958,-0.4682430922985077
1770950686353660000,0.284659912109375,0.3741874694824219,0.3641517162322998,-0.5685118436813354
1770950686372627000,0.303626953125,0.1323094367980957,0.5635941028594971,-0.6949698328971863
1770950686391594000,0.322593994140625,0.47908782958984375,0.7473440170288086,-0.6606699824333191
1770950686410561000,0.34156103515625,1.3011717796325684,0.6993117332458496,-0.4328569173812866
1770950686429528000,0.360528076171875,1.3172931671142578,0.8006312847137451,-0.44732779264450073
1770950686448495000,0.3794951171875,0.906552791595459,0.8462748527526855,-0.6254880428314209
1770950686467462400,0.39846240234375,0.9707989692687988,0.6255671977996826,-0.9139232635498047
1770950686486429200,0.41742919921875,1.277513027191162,0.5147995948791504,-1.1726036071777344
1770950686505396500,0.436396484375,1.9698486328125,0.6556413173675537,-1.0050292015075684
1770950686524363500,0.455363525390625,3.0368804931640625,0.8021659851074219,-0.6451824903488159
1770950686543330300,0.474330322265625,3.4449777603149414,0.5385046005249023,-0.7284085750579834
1770950686562297600,0.493297607421875,2.357760429382324,0.08517932891845703,-1.1881043910980225
1770950686581264600,0.5122646484375,1.3649635314941406,-0.22011995315551758,-1.8843501806259155
1770950686600231700,0.531231689453125,1.7030420303344727,-0.6298074722290039,-2.903931140899658
1770950686619198700,0.55019873046875,2.676814079284668,-1.6023025512695312,-2.884422779083252
1770950686638165800,0.569165771484375,3.4555931091308594,-2.0369083881378174,-2.2585654258728027
1770950686657132800,0.5881328125,2.0174436569213867,-1.392749309539795,-1.3570793867111206
1770950686676099800,0.607099853515625,-0.2302684783935547,-0.057723045349121094,-0.9184002876281738
1770950686695067000,0.62606689453125,-1.656479835510254,0.6857702732086182,-0.2937718629837036
1770950686714034000,0.645033935546875,-0.7368602752685547,0.43621253967285156,-0.6000534296035767
1770950686733001000,0.6640009765625,0.5772762298583984,-0.46007418632507324,-0.9851362705230713
1770950686751968000,0.682968017578125,1.503854751586914,-1.5743942260742188,-0.5183405876159668
1770950686770935000,0.70193505859375,1.3805131912231445,-1.8993250131607056,-0.042384982109069824
1770950686789902000,0.720902099609375,-0.3620271682739258,-1.760420322418213,0.3517206907272339
1770950686808869400,0.739869384765625,-2.577500820159912,-1.3394875526428223,0.4485071897506714
1770950686827836200,0.758836181640625,-3.016268730163574,-1.2043304443359375,0.10109561681747437
1770950686846803200,0.77780322265625,-2.3198022842407227,-1.240812063217163,0.23117345571517944
1770950686865770500,0.7967705078125,-1.8324551582336426,-0.963270902633667,0.5356764793395996
1770950686884737300,0.8157373046875,-2.98037052154541,-0.3129143714904785,0.39795976877212524
1770950686903704600,0.83470458984375,-3.9650497436523438,-0.16089653968811035,0.034100234508514404
1770950686922671600,0.853671630859375,-2.488215446472168,-0.817218542098999,-1.0609631538391113
1770950686941638700,0.872638671875,-1.0769100189208984,-0.8494575023651123,-1.9963648319244385
1770950686960605700,0.891605712890625,-0.3798961639404297,0.1101226806640625,-1.771345615386963
1770950686979572700,0.91057275390625,0.163970947265625,0.6965813636779785,-0.6632481217384338
1770950686998539800,0.929539794921875,-0.18843746185302734,1.0183241367340088,0.1466469168663025
1770950687017506800,0.9485068359375,0.032761573791503906,1.7115058898925781,0.9303333759307861
1770950687036473900,0.967473876953125,0.4386711120605469,1.8730096817016602,0.9173504114151001
1770950687055441000,0.98644091796875,0.8292455673217773,1.2957303524017334,0.2620810270309448
1770950687074408000,1.005407958984375,1.1128034591674805,0.3034045696258545,0.8410329818725586
1770950687093375000,1.024375,2.139059066772461,-0.27272820472717285,1.0297595262527466
1770950687112342000,1.043342041015625,2.7590198516845703,0.3198881149291992,0.8634916543960571
1770950687131309000,1.06230908203125,2.121066093444824,0.9893262386322021,1.3150516748428345
1770950687150276400,1.0812763671875,2.20998477935791,0.9790530204772949,1.274218201637268
1770950687169243100,1.1002431640625,1.8702402114868164,0.5300853252410889,1.022956371307373
1770950687188210400,1.11921044921875,1.769444465637207,0.3182494640350342,0.7561931610107422
1770950687207177500,1.138177490234375,2.372248649597168,-0.2330305576324463,1.6598973274230957
1770950687226144500,1.15714453125,3.3411121368408203,-0.4259755611419678,2.397901773452759
1770950687245111600,1.176111572265625,2.632870674133301,-0.751535177230835,1.9495081901550293
1770950687264078600,1.19507861328125,1.0286006927490234,-1.0483062267303467,1.1030527353286743
1770950687283045600,1.214045654296875,-0.6653976440429688,-1.154369592666626,1.1564522981643677
1770950687302012700,1.2330126953125,-1.1364679336547852,-0.3977675437927246,0.741349458694458
1770950687320979700,1.251979736328125,-0.9271173477172852,-0.14609646797180176,0.5832151174545288
1770950687339946800,1.27094677734375,-0.40520286560058594,-0.19684338569641113,0.3496878147125244
1770950687358913800,1.289913818359375,-1.0316591262817383,-0.27872371673583984,0.2077169418334961
1770950687377880800,1.308880859375,-2.032176971435547,-0.24421262741088867,-0.15395009517669678
1770950687396848000,1.32784814453125,-2.9502363204956055,-0.23344779014587402,-0.36171722412109375
1770950687415815000,1.34681494140625,-2.8645057678222656,-0.22054529190063477,-0.5794553756713867
1770950687434782200,1.3657822265625,-2.1441850662231445,-0.2628300189971924,-0.8363252878189087
1770950687453749200,1.384749267578125,-1.4348011016845703,-0.17497515678405762,-0.44395625591278076
1770950687472716300,1.40371630859375,-1.0568451881408691,-0.03400850296020508,-0.18471992015838623
1770950687491683300,1.422683349609375,-0.9664592742919922,0.16609644889831543,-0.19996678829193115
1770950687510650400,1.441650390625,-1.2209596633911133,0.5426652431488037,-0.2501367926597595
1770950687529617400,1.460617431640625,-1.1869897842407227,0.44049739837646484,-0.4730222821235657
1770950687548584400,1.47958447265625,-0.7176809310913086,0.3711423873901367,-0.5005039572715759
1770950687567551500,1.498551513671875,-0.4097404479980469,0.3291463851928711,-0.6474660038948059
1770950687586518500,1.5175185546875,0.06929683685302734,0.23537349700927734,-0.683735728263855
1770950687605485800,1.53648583984375,0.9755086898803711,0.3605794906616211,-0.5287308096885681
1770950687624452600,1.55545263671875,1.2436046600341797,0.4470643997192383,-0.11536936461925507
1770950687643420000,1.574419921875,1.752945899963379,0.43734264373779297,-0.21090346574783325
1770950687662387000,1.593386962890625,1.3444128036499023,0.9625182151794434,-0.44635969400405884
1770950687681354000,1.61235400390625,1.1487207412719727,1.4942617416381836,-0.20388275384902954
1770950687700321000,1.631321044921875,2.177506446838379,0.9252839088439941,-0.13443636894226074
1770950687719288000,1.6502880859375,4.08552360534668,-0.6051065921783447,-0.46645087003707886
1770950687738255000,1.669255126953125,5.253350257873535,-1.6651008129119873,-1.0103436708450317
1770950687757222100,1.68822216796875,2.5417308807373047,-1.2368907928466797,-1.105736494064331
1770950687776189200,1.707189208984375,0.14547443389892578,-0.327059268951416,-1.3161523342132568
1770950687795156500,1.726156494140625,-0.05368614196777344,-0.47214746475219727,-1.6724934577941895
1770950687814123500,1.74512353515625,1.0822105407714844,-1.192911148071289,-1.1451947689056396
1770950687833090600,1.764090576171875,1.7435340881347656,-1.3234081268310547,-0.2473006248474121
1770950687852057600,1.7830576171875,1.5607423782348633,-1.2043788433074951,0.47320181131362915
1770950687871024600,1.802024658203125,0.2839670181274414,-0.9983565807342529,0.8075258731842041
1770950687889991700,1.82099169921875,-1.421539306640625,-1.0620558261871338,0.6101076602935791
1770950687908958700,1.839958740234375,-2.172703266143799,-1.0263769626617432,0.2264862060546875
1770950687927925800,1.85892578125,-2.90518856048584,-0.9923388957977295,0.1498051881790161
1770950687946892800,1.877892822265625,-3.3831539154052734,-0.9967567920684814,-0.35857534408569336
1770950687965860000,1.896860107421875,-3.3096961975097656,-0.78226637840271,-0.6836525797843933
1770950687984827100,1.9158271484375,-3.274357795715332,-0.5796029567718506,-0.2738887071609497
1770950688003794200,1.934794189453125,-2.78619384765625,-0.2838578224182129,-0.07016134262084961
1770950688022761200,1.95376123046875,-2.035311698913574,-0.2580695152282715,-0.16622257232666016
1770950688041728300,1.972728271484375,-1.1550159454345703,-0.3791079521179199,-0.12274658679962158
1770950688060695300,1.9916953125,-0.6259174346923828,-0.17271661758422852,-0.022601723670959473
1770950688079662600,2.01066259765625,-0.32004261016845703,0.07987499237060547,0.051245689392089844
1770950688098629600,2.029629638671875,-0.17479324340820312,0.25501203536987305,0.0858607292175293
1770950688117596700,2.0485966796875,-0.05920600891113281,0.688817024230957,0.34748995304107666
1770950688136563700,2.067563720703125,0.10450172424316406,0.6873960494995117,0.5846656560897827
1770950688155530800,2.08653076171875,0.7163610458374023,0.4700927734375,0.7055305242538452
1770950688174497800,2.105497802734375,1.0806894302368164,0.3594551086425781,0.35066699981689453
1770950688193465000,2.124465087890625,1.1113519668579102,0.6665663719177246,0.5449508428573608
1770950688212432100,2.14343212890625,1.7124805450439453,0.6530146598815918,0.8763620853424072
1770950688231399200,2.162399169921875,2.3816261291503906,0.848186731338501,0.8086076974868774
1770950688250366200,2.1813662109375,2.238718032836914,0.5226054191589355,1.2817622423171997
1770950688269333200,2.200333251953125,3.1617698669433594,-0.2975022792816162,1.847424864768982
1770950688288300300,2.21930029296875,4.518131256103516,-0.9772088527679443,2.256129264831543
1770950688307267600,2.238267578125,4.567017555236816,-1.3511745929718018,2.3290696144104004
1770950688326234600,2.257234619140625,2.6684789657592773,-1.1902952194213867,1.9289767742156982
1770950688345201700,2.27620166015625,0.46953678131103516,-0.7838337421417236,1.8155206441879272
1770950688364168700,2.295168701171875,-1.2512059211730957,-0.25252270698547363,1.708010196685791
1770950688383135700,2.3141357421875,-2.2620315551757812,0.1086740493774414,1.6744354963302612
1770950688402103000,2.33310302734375,-2.107357978820801,0.0607142448425293,1.3273855447769165
1770950688421070000,2.352070068359375,-1.508005142211914,-0.410186767578125,0.7269912958145142
1770950688440037000,2.371037109375,-1.3346257209777832,-0.6819946765899658,0.011776566505432129
1770950688459004200,2.390004150390625,-1.7604522705078125,-0.6143894195556641,-0.1999056339263916
1770950688477971500,2.408971435546875,-2.297964572906494,-0.4665379524230957,-0.3289452791213989
1770950688496938500,2.4279384765625,-2.3640313148498535,-0.48697566986083984,-0.645510196685791
1770950688515905500,2.446905517578125,-2.1873044967651367,-0.3074367046356201,-0.8875072002410889
1770950688534872600,2.46587255859375,-1.7783551216125488,-0.18339228630065918,-0.7621490359306335
1770950688553839600,2.484839599609375,-1.2520275115966797,-0.07340645790100098,-0.8319311738014221
1770950688572806700,2.503806640625,-1.1016616821289062,0.23012232780456543,-0.7387514114379883
1770950688591774000,2.52277392578125,-1.1220226287841797,0.5482747554779053,-0.6085796356201172
1770950688610741000,2.541740966796875,-0.9429140090942383,0.7113475799560547,-0.5388039350509644
1770950688629708000,2.5607080078125,-0.5105876922607422,0.8316700458526611,-0.5033060908317566
1770950688648675300,2.57967529296875,0.01566028594970703,0.6829831600189209,-0.6251773834228516
1770950688667642400,2.598642333984375,0.46761322021484375,0.5436031818389893,-0.7266082167625427
1770950688686609400,2.617609375,0.8059577941894531,0.6543149948120117,-0.6074546575546265
1770950688705576400,2.636576416015625,0.9693183898925781,0.8092877864837646,-0.2202892303466797
1770950688724543700,2.655543701171875,1.419947624206543,1.217972993850708,-0.11678598821163177
1770950688743510800,2.6745107421875,1.3408784866333008,1.2963666915893555,-0.04209616780281067
1770950688762477800,2.693477783203125,2.5696611404418945,1.1269164085388184,-0.053960591554641724
1770950688781445000,2.712445068359375,3.9958744049072266,0.23372101783752441,0.08183494210243225
1770950688800412200,2.731412109375,5.273371696472168,-0.9198267459869385,-0.30040425062179565
1770950688819379200,2.750379150390625,5.884527206420898,-2.027954578399658,-0.8401873111724854
1770950688838346200,2.76934619140625,3.5620412826538086,-1.9014623165130615,-1.2399494647979736
1770950688857313500,2.7883134765625,0.25687217712402344,-1.1277587413787842,-1.4025301933288574
1770950688876280600,2.807280517578125,-0.7531452178955078,-0.7538299560546875,-1.271437168121338
1770950688895247600,2.82624755859375,0.045169830322265625,-1.030452013015747,-1.007423758506775
1770950688914215000,2.84521484375,0.19845199584960938,-1.0890235900878906,-0.4231705069541931
1770950688933182000,2.864181884765625,0.177490234375,-1.0824403762817383,0.4545634090900421
1770950688952149000,2.88314892578125,-0.2642173767089844,-0.8211753368377686,0.9155839681625366
1770950688971116000,2.902115966796875,-0.9915885925292969,-0.9092764854431152,0.6286753416061401
1770950688990083300,2.921083251953125,-1.733510971069336,-0.8889791965484619,-0.06840857118368149
1770950689009050400,2.94005029296875,-2.600412368774414,-0.5476846694946289,0.10204881429672241
1770950689028017400,2.959017333984375,-3.3801026344299316,-0.33158159255981445,-0.5490036010742188
1770950689046984700,2.977984619140625,-2.9959840774536133,-0.9819262027740479,0.2066650390625
1770950689065951700,2.99695166015625,-1.9524574279785156,-0.5187420845031738,-0.05264941602945328
1770950689084918800,3.015918701171875,-1.4100513458251953,-0.3627512454986572,-0.04639251530170441
1770950689103885800,3.0348857421875,-0.7561502456665039,-0.6396279335021973,0.03481897711753845
1770950689122853000,3.05385302734375,0.3236236572265625,-0.675910234451294,-0.11063769459724426
1770950689141820200,3.072820068359375,0.15231704711914062,-0.22184038162231445,-0.03585061430931091
1770950689160787200,3.091787109375,-0.3946542739868164,0.09678077697753906,-0.11431029438972473
1770950689179754500,3.11075439453125,-0.6797857284545898,0.2984468936920166,-0.2364777773618698
1770950689198721500,3.129721435546875,-0.8874082565307617,0.6490769386291504,-0.2759907841682434
1770950689217688800,3.148688720703125,-1.0156664848327637,1.0602917671203613,-0.044523000717163086
1770950689236655900,3.16765576171875,-1.1106810569763184,1.4841837882995605,0.26714903116226196
1770950689255623000,3.186622802734375,-0.1472940444946289,1.1235630512237549,0.4708077907562256
1770950689274590200,3.205590087890625,0.8917942047119141,0.749474287033081,0.5504076480865479
1770950689293557200,3.22455712890625,1.6275367736816406,0.4616703987121582,0.4258737564086914
1770950689312524300,3.243524169921875,2.2612104415893555,0.1829996109008789,0.5037798881530762
1770950689331491600,3.26249169921875,2.4492692947387695,0.32237911224365234,0.5246502161026001
1770950689350458600,3.281458740234375,1.7723703384399414,0.25107502937316895,0.36381614208221436
1770950689369425700,3.30042578125,1.6503400802612305,-0.010921716690063477,0.6642702221870422
1770950689388393000,3.31939306640625,3.0610275268554688,-0.4713931083679199,1.2013039588928223
1770950689407360000,3.338360107421875,3.7172231674194336,-0.7404260635375977,1.697361946105957
1770950689426327300,3.357327392578125,2.471212387084961,-0.48190832138061523,2.0847177505493164
1770950689445294300,3.37629443359375,0.9111995697021484,-0.37357401847839355,1.9944729804992676
1770950689464261400,3.395261474609375,-0.2979154586791992,-0.4049365520477295,1.906724452972412
1770950689483228400,3.414228515625,-1.346017837524414,-0.19144463539123535,1.9197607040405273
1770950689502195700,3.43319580078125,-1.8041973114013672,-0.15571355819702148,1.8785440921783447
1770950689521163000,3.4521630859375,-1.7969269752502441,-0.19888973236083984,1.6226787567138672
1770950689540130000,3.471130126953125,-1.8158645629882812,-0.27422237396240234,1.234018325805664
1770950689559097000,3.49009716796875,-2.239922523498535,-0.5866179466247559,0.7592859864234924
1770950689578064400,3.509064453125,-2.4928064346313477,-0.5551743507385254,0.5077528357505798
1770950689597031400,3.528031494140625,-2.724346160888672,-0.5427651405334473,0.20383644104003906
1770950689615998500,3.54699853515625,-2.8826956748962402,-0.31794261932373047,-0.2614718973636627
1770950689634965800,3.5659658203125,-2.6530818939208984,-0.140702486038208,-0.08642205595970154
1770950689653932800,3.584932861328125,-2.2462353706359863,-0.04414033889770508,-0.07263949513435364
1770950689672900000,3.603900146484375,-1.5590786933898926,-0.1775496006011963,-0.3392568826675415
1770950689691867100,3.6228671875,-1.0101957321166992,-0.03147149085998535,-0.30142587423324585
1770950689710834400,3.64183447265625,-0.8231935501098633,0.47098827362060547,-0.13898137211799622
1770950689729801500,3.660801513671875,-0.946044921875,0.6268391609191895,-0.5747033953666687
1770950689748768800,3.679768798828125,-0.6802148818969727,0.549236536026001,-1.3212236166000366
1770950689767735800,3.69873583984375,-0.4494209289550781,0.6925265789031982,-0.9933159351348877
1770950689786702800,3.717702880859375,-0.3651609420776367,0.9325087070465088,-0.9178978800773621
1770950689805670100,3.736670166015625,-0.5375099182128906,0.9347414970397949,-0.7049003839492798
1770950689824637200,3.75563720703125,0.5197715759277344,1.0561285018920898,-0.19013434648513794
1770950689843604500,3.7746044921875,1.1583118438720703,1.4359338283538818,0.4282616674900055
1770950689862571500,3.793571533203125,0.9357824325561523,1.319225788116455,0.6078758239746094
1770950689881538800,3.812538818359375,1.3090391159057617,1.3456087112426758,0.2577355206012726
1770950689900505900,3.831505859375,1.2121191024780273,0.9995448589324951,0.1876118779182434
1770950689919473000,3.850472900390625,1.3982133865356445,-1.2437794208526611,2.131326913833618
1770950689938440200,3.869440185546875,0.35967445373535156,-1.4217135906219482,0.10185122489929199
1770950689957407200,3.8884072265625,1.8729791641235352,-1.3784059286117554,-1.9539167881011963
1770950689976374500,3.90737451171875,1.357731819152832,-2.4643564224243164,-1.556440830230713
1770950689995341600,3.926341552734375,0.6751365661621094,-1.6964201927185059,-2.792114734649658
1770950690014308900,3.945308837890625,0.3426065444946289,-0.770409107208252,-0.988112211227417
1770950690033276200,3.964276123046875,0.954925537109375,-0.1993359923362732,1.731696367263794
1770950690052243200,3.9832431640625,2.1111812591552734,0.24387186765670776,2.856226921081543
1770950690071210200,4.002210205078125,2.395817756652832,-0.028407812118530273,2.3693199157714844
1770950690090177500,4.021177490234375,1.3357620239257812,-0.38543975353240967,1.2755355834960938
1770950690109144600,4.04014453125,0.3280820846557617,-0.4373813271522522,0.7344772815704346
1770950690128111900,4.05911181640625,-1.2103595733642578,-0.8908625841140747,1.335705041885376
1770950690147079000,4.078078857421875,-3.099557876586914,-0.6191940903663635,1.5951259136199951
1770950690166046200,4.097046142578125,-5.288455963134766,0.546134352684021,2.3511924743652344
1770950690185013200,4.11601318359375,-3.65932559967041,1.4501309394836426,3.079789400100708
1770950690203980500,4.13498046875,-3.8453807830810547,0.9334732890129089,3.3188157081604004
1770950690222947600,4.153947509765625,-2.6385459899902344,0.43750470876693726,2.451768636703491
1770950690241915000,4.172914794921875,-1.63270902633667,0.11117413640022278,2.263097047805786
1770950690260882000,4.1918818359375,0.6257266998291016,-0.42465782165527344,1.9859004020690918
1770950690279849200,4.21084912109375,0.17704391479492188,-2.532697916030884,3.2653331756591797
1770950690298816300,4.229816162109375,-6.333992004394531,-2.502732038497925,2.912548303604126
1770950690317783600,4.248783447265625,-6.289573669433594,-1.456109642982483,2.877075433731079
1770950690336750800,4.267750732421875,-1.9445199966430664,-2.2450406551361084,2.387197494506836
1770950690355718000,4.2867177734375,-0.7886276245117188,-3.148310422897339,2.402575969696045
1770950690374685000,4.305684814453125,-0.080047607421875,-1.7181557416915894,1.8938727378845215
1770950690393652200,4.32465234375,0.372408390045166,-3.745448350906372,3.906651735305786
1770950690412619300,4.343619384765625,-0.7204837799072266,-3.4560484886169434,2.090064287185669
1770950690431586600,4.362586669921875,-2.08199405670166,-7.034074783325195,1.1442928314208984
1770950690450553600,4.3815537109375,-2.619053840637207,-6.727614402770996,-1.2940526008605957
1770950690495573500,4.426573486328125,0.4679851531982422,-8.654052734375,-3.6990537643432617
1770950690514540800,4.445540771484375,0.1366429328918457,-8.727956771850586,-4.441643714904785
1770950690533507800,4.4645078125,2.06782865524292,-6.384566783905029,-5.00543737411499
1770950690552475100,4.48347509765625,5.327121734619141,-4.30767297744751,-5.968956470489502
1770950690571442200,4.502442138671875,5.375754356384277,-2.443661689758301,-6.79053258895874
1770950690590409500,4.521409423828125,4.403263092041016,-0.3659787178039551,-6.37084436416626
1770950690609376500,4.54037646484375,4.1294355392456055,2.02913236618042,-5.936347961425781
1770950690628343800,4.55934375,4.120870113372803,2.590013027191162,-6.741470813751221
1770950690647311000,4.57831103515625,3.2685294151306152,2.738180160522461,-7.0207905769348145
1770950690666278100,4.597278076171875,3.203718423843384,6.115729331970215,-6.308209419250488
1770950690685245200,4.6162451171875,2.4753947257995605,5.474343299865723,-4.581532001495361
1770950690704212500,4.63521240234375,1.4176149368286133,6.4714484214782715,-3.6255416870117188
1770950690723179800,4.6541796875,5.504118919372559,5.381739616394043,-4.350017547607422
1770950690751630600,4.682630615234375,8.478849411010742,7.51076078414917,-1.9588055610656738
1770950690770597600,4.70159765625,6.048518180847168,4.950212001800537,-0.7952971458435059
1770950690789565000,4.72056494140625,6.673404693603516,4.186395645141602,-0.7733731269836426
1770950690808532000,4.739531982421875,4.738648414611816,2.903665542602539,0.02477884292602539
1770950690827499300,4.758499267578125,2.313988447189331,1.5951550006866455,-0.4721851348876953
1770950690846466300,4.77746630859375,-0.8410028219223022,-2.88694429397583,-7.8751678466796875
1770950690865433600,4.79643359375,0.022080183029174805,-4.593836784362793,-4.9399003982543945
1770950690884401000,4.81540087890625,6.1716084480285645,0.1671907901763916,-2.331210136413574
1770950690903368000,4.834367919921875,7.505796432495117,1.9328839778900146,3.9019269943237305
1770950690922335200,4.853335205078125,2.1203432083129883,1.1095867156982422,1.804853916168213
1770950690941302300,4.87230224609375,-8.741118431091309,-4.642795562744141,-2.2532196044921875
1770950690960269600,4.89126953125,-11.64867877960205,-8.00583267211914,-1.0910816192626953
1770950690979236600,4.910236572265625,0.2863987684249878,-6.377645015716553,-3.093658447265625
1770950690998204000,4.929203857421875,3.2477030754089355,-6.144337177276611,0.24693679809570312
1770950691017171200,4.948171142578125,-0.7863673567771912,-4.53417444229126,4.619136333465576
1770950691036138200,4.96713818359375,-0.9247117638587952,-3.758643627166748,5.818410873413086
1770950691055105500,4.98610546875,-3.7113890647888184,-2.346247911453247,4.258296966552734
1770950691074072800,5.00507275390625,-3.466538906097412,-0.9662158489227295,4.426741600036621
1770950691093039900,5.024039794921875,-0.4414244294166565,-0.44204139709472656,0.5388259887695312
1770950691112007200,5.043007080078125,-0.45075100660324097,-0.1256580352783203,0.08243751525878906
1770950691130974200,5.06197412109375,-0.9681275486946106,1.4561102390289307,1.2084250450134277
1770950691149941500,5.08094140625,-1.3695014715194702,2.986112117767334,2.4538865089416504
1770950691168908800,5.09990869140625,-1.6881040334701538,3.3506336212158203,3.3188729286193848
1770950691187875800,5.118875732421875,1.2126810550689697,4.578439712524414,5.071990966796875
1770950691206843100,5.137843017578125,0.7577601671218872,4.0688371658325195,4.788542747497559
1770950691225810400,5.156810546875,-4.042534351348877,1.5911407470703125,1.952773094177246
1770950691244777500,5.175777587890625,-4.277567386627197,-0.201812744140625,-1.3384013175964355
1770950691263744800,5.194744873046875,1.0289419889450073,1.5019478797912598,-2.127061367034912
1770950691282711800,5.2137119140625,3.4145328998565674,3.141183853149414,-2.46885347366333
1770950691301679000,5.23267919921875,-0.09717140346765518,4.413683891296387,-0.6090922355651855
1770950691320646400,5.251646484375,3.334848403930664,2.4809179306030273,0.005469799041748047
1770950691339613400,5.270613525390625,0.8004947900772095,0.6533203125,0.35689258575439453
1770950691358580700,5.289580810546875,3.608285427093506,-3.1119518280029297,0.20513391494750977
1770950691377548000,5.308548095703125,3.569467067718506,-1.3783178329467773,0.08559060096740723
1770950691396515000,5.32751513671875,1.4473904371261597,2.701207160949707,-1.42252779006958
1770950691415482400,5.346482421875,-3.658599615097046,2.999711513519287,-2.03014874458313
1770950691434449700,5.36544970703125,-5.766490936279297,-1.2646236419677734,-2.782991647720337
1770950691453416700,5.384416748046875,-2.359438896179199,-6.232641220092773,-4.710660934448242
1770950691472384000,5.403384033203125,11.901389122009277,-10.90192699432373,-4.657962799072266
1770950691491351300,5.422351318359375,12.636780738830566,-8.271721839904785,-2.288116931915283
1770950691510318300,5.441318359375,6.354711055755615,-4.638467788696289,-2.845383644104004
1770950691529285600,5.46028564453125,-4.325017929077148,-1.727686882019043,-1.213595986366272
1770950691548253000,5.4792529296875,0.05926579236984253,-3.3501052856445312,-2.0566484928131104
1770950691567220200,5.49822021484375,1.653627634048462,-10.31036376953125,0.15218013525009155
1770950691586187300,5.517187255859375,-0.6264779567718506,-8.843036651611328,5.523374080657959
1770950691605154600,5.536154541015625,-0.4297947883605957,-6.5163774490356445,4.322610855102539
1770950691624121900,5.555121826171875,-4.384018898010254,-4.768239974975586,-0.7492685317993164
1770950691643089000,5.5740888671875,-4.417128562927246,-3.296004295349121,-0.4326748251914978
1770950691662056200,5.59305615234375,-0.9957212209701538,-3.618589401245117,1.799956202507019
1770950691681023500,5.6120234375,-2.849655866622925,-2.5648460388183594,2.3828868865966797
1770950691699990800,5.63099072265625,-5.59346866607666,1.5818829536437988,1.1666934490203857
1770950691718957800,5.649957763671875,-4.335276126861572,4.601570129394531,0.8898756504058838
1770950691737925000,5.668925048828125,-5.391965389251709,6.28231143951416,1.5397286415100098
1770950691756892400,5.687892333984375,-5.921538352966309,7.415159225463867,2.4308736324310303
1770950691775859500,5.706859375,-4.854097843170166,7.926915168762207,2.5047082901000977
1770950691794826800,5.72582666015625,-4.824928283691406,7.719089508056641,2.416545867919922
1770950691813794000,5.7447939453125,-5.826711654663086,7.3127946853637695,2.4676401615142822
1770950691832761300,5.76376123046875,-6.506510257720947,6.793839931488037,1.5771903991699219
1770950691851728600,5.782728759765625,-5.709456443786621,5.832529067993164,0.48897886276245117
1770950691870695700,5.80169580078125,-3.4961516857147217,5.093071937561035,0.6206498146057129
1770950691889663000,5.8206630859375,1.40940260887146,2.614743709564209,0.2718982696533203
1770950691908630300,5.83963037109375,17.140111923217773,-4.194497108459473,0.2932032346725464
1770950691927597600,5.85859765625,22.392192840576172,-23.437767028808594,-4.620488166809082
1770950691946564900,5.87756494140625,0.6416926383972168,-23.44001579284668,-5.424422264099121
1770950691965532000,5.896531982421875,2.14678955078125,-0.7818841934204102,0.5463210344314575
1770950691984499200,5.915499267578125,2.451401472091675,7.472463607788086,6.124476432800293
1770950692003466500,5.934466552734375,-1.0548995733261108,6.528786659240723,8.055161476135254
1770950692022433800,5.953433837890625,-6.243879318237305,-1.5454730987548828,5.760190010070801
1770950692041401000,5.972401123046875,-3.2432987689971924,-10.5985107421875,2.4753525257110596
1770950692060368400,5.991368408203125,-8.163873672485352,1.4886178970336914,1.8018620014190674
1770950692079335400,6.01033544921875,-2.9032788276672363,6.182435035705566,1.014732837677002
1770950692098302700,6.029302734375,-2.2975785732269287,5.1924567222595215,2.9355318546295166
1770950692117270000,6.04827001953125,-3.978093147277832,4.2785234451293945,4.9907145500183105
1770950692136237300,6.0672373046875,-5.1686882972717285,3.073047161102295,4.736827850341797
1770950692155204600,6.08620458984375,-6.138463020324707,0.8385953903198242,3.797361373901367
1770950692174172000,6.105171875,-8.77223014831543,-2.222100257873535,1.4008111953735352
1770950692193139200,6.12413916015625,-5.5436201095581055,-3.6669998168945312,-1.5826658010482788
1770950692212106200,6.143106201171875,1.6183878183364868,-5.149322509765625,-5.226223468780518
1770950692231073500,6.162073486328125,9.298383712768555,-5.28176212310791,-7.748080253601074
1770950692250040800,6.181040771484375,3.068189859390259,-1.365605354309082,-6.87235689163208
1770950692269008100,6.200008056640625,-1.1613348722457886,0.07641315460205078,-1.356945514678955
1770950692287975400,6.218975341796875,-1.479787826538086,0.7360992431640625,0.36841773986816406
1770950692306942700,6.237942626953125,-1.111640214920044,1.9148926734924316,0.46680688858032227
1770950692325910000,6.256909912109375,-0.7862306833267212,3.153987407684326,0.7681314945220947
1770950692354360800,6.28536083984375,2.0559229850769043,1.764570713043213,1.325136661529541
1770950692373328100,6.304328125,3.1339828968048096,0.12876605987548828,0.12364625930786133
1770950692392295400,6.32329541015625,2.868577480316162,-0.6931905746459961,-1.5592584609985352
1770950692411262700,6.3422626953125,2.888939380645752,-1.5437688827514648,-2.592085123062134
1770950692430230000,6.36122998046875,2.9659171104431152,-1.9668798446655273,-3.044597864151001
1770950692449197300,6.380197265625,3.9508395195007324,-2.7703351974487305,-3.465485095977783
1770950692468164600,6.39916455078125,4.398457050323486,-3.6390504837036133,-4.176912307739258
1770950692487132000,6.4181318359375,2.52886700630188,-3.3065500259399414,-5.824896812438965
1770950692506099200,6.43709912109375,-0.357586145401001,-3.1276111602783203,-5.769021511077881
1770950692525066500,6.45606640625,0.6697936058044434,-3.4019899368286133,-3.0152602195739746
1770950692544033800,6.47503369140625,3.8708367347717285,-4.76003360748291,-1.498182773590088
1770950692563001000,6.4940009765625,6.338493347167969,-5.2066497802734375,-1.0774142742156982
1770950692581968400,6.512968505859375,3.606232166290283,-5.110016822814941,1.1567375659942627
1770950692600935700,6.531935791015625,3.9824252128601074,-4.3137664794921875,1.7191061973571777
1770950692619903000,6.550903076171875,1.170613408088684,-4.856565475463867,1.3939740657806396
1770950692638870300,6.569870361328125,-2.276614189147949,-4.016345024108887,6.121721267700195
1770950692657837600,6.588837646484375,-3.70151948928833,-4.195827484130859,8.654459953308105
1770950692676804900,6.607804931640625,-4.512716293334961,-3.3809986114501953,8.847879409790039
1770950692695772200,6.626772216796875,-5.025457382202148,-1.476210594177246,4.935770034790039
1770950692714739500,6.645739501953125,-6.638452529907227,-0.541010856628418,1.2568166255950928
1770950692733706800,6.664706787109375,-3.7872073650360107,-0.9871644973754883,-0.707507848739624
1770950692752674000,6.683674072265625,0.28955864906311035,-3.586604118347168,-5.083356857299805
1770950692771641300,6.702641357421875,-4.027813911437988,-2.035954475402832,-0.6778066158294678
1770950692790608600,6.721608642578125,-5.105865955352783,1.3871936798095703,0.2928004264831543
1770950692809576000,6.740575927734375,-5.091529846191406,4.320965766906738,1.6677604913711548
1770950692828543200,6.759543212890625,-5.724769115447998,6.300947189331055,2.271484851837158
1770950692847510500,6.778510498046875,-5.469564437866211,7.4981536865234375,2.808046817779541
1770950692866478000,6.79747802734375,-4.813112735748291,7.649022102355957,3.0796058177948
1770950692885445400,6.8164453125,-4.608496189117432,7.768833160400391,3.5740103721618652
1770950692904412700,6.83541259765625,-5.306626796722412,7.929999828338623,3.8028807640075684
1770950692923380000,6.8543798828125,-5.617063045501709,7.457315921783447,2.5247578620910645
1770950692942347300,6.87334716796875,-4.949498176574707,7.28555965423584,2.158781051635742
1770950692961314600,6.892314453125,-3.070800304412842,6.044670581817627,1.5715978145599365
1770950692980281900,6.91128173828125,0.8992633819580078,1.9301795959472656,1.0198109149932861
1770950692999249200,6.930249267578125,13.00218677520752,-7.13818359375,1.8953051567077637
1770950693018216400,6.949216552734375,13.26503849029541,-21.61417579650879,-4.211854457855225
1770950693037183700,6.968183837890625,6.48184871673584,-17.65069580078125,-6.384677886962891
1770950693056151000,6.987151123046875,3.528388261795044,-2.3259353637695312,0.6218400001525879
1770950693075118600,7.00611865234375,-0.33527445793151855,3.221576690673828,5.203527450561523
1770950693094086000,7.0250859375,-6.4900007247924805,2.3344168663024902,2.4095726013183594
1770950693113053200,7.04405322265625,-8.057333946228027,0.3551797866821289,5.537737846374512
1770950693132020500,7.0630205078125,-5.167857646942139,3.0262317657470703,4.0497026443481445
1770950693150987800,7.08198779296875,0.06601071357727051,4.523218631744385,0.598477840423584
1770950693169955000,7.100955078125,-1.6273503303527832,1.9759392738342285,2.2638509273529053
1770950693188922600,7.119922607421875,-4.755370140075684,0.4782733917236328,3.62522292137146
1770950693207890000,7.138889892578125,-2.7139062881469727,-2.760761260986328,0.8521859645843506
1770950693226857200,7.157857177734375,0.028742551803588867,-4.366235733032227,-2.0660128593444824
1770950693245824500,7.176824462890625,-0.5463099479675293,-2.984927177429199,-2.6470017433166504
1770950693264791800,7.195791748046875,-1.7265197038650513,-1.563878059387207,-0.4356689453125
1770950693283759000,7.214759033203125,-1.675714373588562,-0.9223966598510742,0.16754913330078125
1770950693302726700,7.2337265625,-0.49493634700775146,0.37823009490966797,0.47798609733581543
1770950693321694000,7.25269384765625,-0.3337464928627014,1.854870319366455,-0.19285035133361816
1770950693340661200,7.2716611328125,0.37494176626205444,2.8853259086608887,-0.9234110116958618
1770950693359628500,7.290628662109375,1.6911704540252686,2.9279351234436035,-1.501795768737793
1770950693388079600,7.31907958984375,2.0722999572753906,1.880648136138916,-1.9912936687469482
1770950693407047000,7.338046875,1.987238883972168,0.42093467712402344,-1.6994266510009766
1770950693426014200,7.35701416015625,2.495100975036621,0.2547426223754883,-1.732509732246399
1770950693444981500,7.3759814453125,2.189237117767334,1.2328901290893555,-2.2149240970611572
1770950693463949000,7.394948974609375,0.4104886054992676,3.0164012908935547,-2.014404535293579
1770950693482916400,7.413916259765625,-0.9931344985961914,3.318563938140869,-1.8928498029708862
1770950693501883600,7.432883544921875,0.024678468704223633,1.3377695083618164,-2.2471046447753906
1770950693520851200,7.451851318359375,0.9199714660644531,0.10709762573242188,-1.9684786796569824
1770950693539818500,7.470818603515625,1.118027925491333,1.6185088157653809,-1.3907893896102905
1770950693558785800,7.489785888671875,0.17415308952331543,3.245487689971924,-1.4956533908843994
1770950693577753000,7.508753173828125,-0.3278176784515381,3.907592296600342,-1.1581900119781494
1770950693596720600,7.527720703125,-0.771173894405365,2.4092445373535156,-1.2632806301116943
1770950693615688000,7.54668798828125,0.2940714359283447,-1.1155576705932617,-2.07594895362854
1770950693634655200,7.5656552734375,4.274264335632324,-2.83577823638916,-3.7014951705932617
1770950693653622500,7.58462255859375,7.184818267822266,-5.082762718200684,-3.6864383220672607
1770950693672590000,7.603590087890625,5.15891170501709,-6.502866744995117,-0.1071770191192627
1770950693691557400,7.622557373046875,3.043830394744873,-9.130355834960938,2.2256076335906982
1770950693710524700,7.641524658203125,-0.2163996696472168,-12.25209903717041,3.485022783279419
1770950693729492000,7.660491943359375,-4.963692665100098,-12.693243980407715,7.037515640258789
1770950693748459500,7.67945947265625,-2.355515241622925,-10.370203018188477,4.502701282501221
1770950693767426800,7.6984267578125,-2.6001737117767334,-3.2541675567626953,4.860925197601318
1770950693786394000,7.71739404296875,-2.7934155464172363,3.756194591522217,4.266167640686035
1770950693805361700,7.736361572265625,-1.7852544784545898,6.424469947814941,3.9215126037597656
1770950693824329000,7.755328857421875,-2.607659339904785,6.113498687744141,3.2590527534484863
1770950693843296300,7.774296142578125,-3.838243246078491,4.493358612060547,1.853461742401123
1770950693862263800,7.793263916015625,-4.20845365524292,4.688759803771973,0.6884552240371704
1770950693881231000,7.812231201171875,-4.5497660636901855,6.169162750244141,0.47590363025665283
1770950693900198400,7.831198486328125,-4.314093112945557,6.711531639099121,0.7503392696380615
1770950693919166000,7.850166015625,-4.209403038024902,6.345295429229736,0.8044260740280151
1770950693938133200,7.86913330078125,-3.7074739933013916,6.6743083000183105,0.7202503681182861
1770950693957100500,7.8881005859375,-3.2606797218322754,7.300634384155273,0.40258073806762695
1770950693976067800,7.90706787109375,-3.206045150756836,7.61674165725708,-0.4604783058166504
1770950693995035400,7.926035400390625,-3.3254785537719727,6.394211292266846,-2.1113765239715576
1770950694014002700,7.945002685546875,-3.137911558151245,0.9922995567321777,-3.623629331588745
1770950694032970000,7.963969970703125,1.404625654220581,-9.675381660461426,-2.558168411254883
1770950694051937500,7.9829375,7.27836799621582,-7.941021919250488,0.26872920989990234
1770950694070904800,8.00190478515625,9.237236022949219,-3.366360664367676,-0.038482666015625
1770950694089872400,8.020872314453126,9.290993690490723,0.7672176361083984,2.480271339416504
1770950694108839700,8.039839599609374,4.010502338409424,1.485194206237793,4.108579158782959
1770950694127807000,8.058806884765625,-6.100505352020264,-0.8306980133056641,3.106208562850952
1770950694146774500,8.0777744140625,-7.299552917480469,-3.159884452819824,5.531184673309326
1770950694165741800,8.096741943359374,-3.722142219543457,-4.846891403198242,5.400303840637207
1770950694184709000,8.115709228515625,3.1498446464538574,-9.838458061218262,-1.310405969619751
1770950694203676700,8.1346767578125,5.374211311340332,-17.459592819213867,1.0766241550445557
1770950694222644000,8.15364404296875,-5.118334770202637,-3.6563329696655273,0.9756045341491699
1770950694241611500,8.172611572265625,-6.870785713195801,3.6847991943359375,0.3278214931488037
1770950694260578800,8.191578857421876,-7.119790077209473,3.5429906845092773,1.5213038921356201
1770950694279546000,8.210546142578124,-6.312270164489746,-0.45858287811279297,1.3398199081420898
1770950694298513700,8.229513671875,-1.0130271911621094,-3.73068904876709,1.4018182754516602
1770950694317481000,8.24848095703125,7.2179484367370605,-3.5316715240478516,-1.3860723972320557
1770950694336448500,8.267448486328124,6.152195453643799,0.4891681671142578,-2.687177896499634
1770950694355415800,8.286415771484375,0.4505504369735718,3.8496484756469727,-1.200596570968628
1770950694374383000,8.305383056640625,0.06235206127166748,5.58651876449585,-0.7231788635253906
1770950694393350700,8.3243505859375,3.0811588764190674,5.718355178833008,-1.173588514328003
1770950694412318000,8.34331787109375,4.213436126708984,3.690546989440918,-2.793466806411743
1770950694431285500,8.362285400390626,2.2868876457214355,2.0230894088745117,-3.40934157371521
1770950694450252800,8.381252685546874,-0.047468602657318115,1.3393330574035645,-3.3115835189819336
1770950694469220000,8.40022021484375,1.675095796585083,1.1529951095581055,-3.6405279636383057
1770950694488187600,8.419187744140626,3.043123722076416,1.2460145950317383,-3.1496734619140625
1770950694507155000,8.438155029296874,1.7618188858032227,2.5065321922302246,-1.208976149559021
1770950694526122500,8.45712255859375,4.15503454208374,2.506340980529785,-0.6107759475708008
1770950694545089800,8.47608984375,3.080749988555908,0.10103511810302734,-0.8057527542114258
1770950694564057300,8.495057373046874,3.8228724002838135,-4.513785362243652,-1.4938901662826538
1770950694583024600,8.514024658203125,5.6919050216674805,-9.614546775817871,-1.5089985132217407
1770950694601992000,8.532991943359375,3.3669817447662354,-12.706414222717285,1.115116834640503
1770950694620959500,8.55195947265625,-3.2788491249084473,-13.0073823928833,1.6691069602966309
1770950694639926800,8.5709267578125,-6.662774085998535,-10.67509651184082,5.56003999710083
1770950694658894300,8.589894287109376,-5.522740840911865,-6.769761085510254,6.712324142456055
1770950694677861600,8.608861572265624,-1.786099910736084,-2.138485908508301,3.9361064434051514
1770950694696829200,8.6278291015625,-3.13753342628479,3.4302496910095215,3.8909449577331543
1770950694715796500,8.64679638671875,-2.2123124599456787,5.014389991760254,3.2043864727020264
1770950694734764000,8.665763916015624,-3.2398998737335205,5.015724182128906,2.546409845352173
1770950694753731300,8.6847314453125,-4.1546831130981445,5.023141860961914,1.4954044818878174
1770950694772698600,8.70369873046875,-4.638974189758301,5.902695655822754,0.5169490575790405
1770950694791666200,8.722666259765624,-4.292886734008789,7.3210344314575195,0.5270980596542358
1770950694810633500,8.741633544921875,-3.6443450450897217,8.298810005187988,1.2522633075714111
1770950694829601000,8.76060107421875,-3.118187189102173,8.243239402770996,1.103966236114502
1770950694848568300,8.779568359375,-2.7933623790740967,8.25074291229248,0.4508941173553467
1770950694867536000,8.798535888671875,-3.063432455062866,7.675489902496338,-0.8144237995147705
1770950694886503200,8.817503173828126,-1.7466853857040405,4.980553150177002,-2.7806203365325928
1770950694905470700,8.836470703125,2.234102249145508,-4.272469520568848,-4.828705787658691
1770950694924438000,8.85543798828125,3.333866596221924,-12.365832328796387,-0.7438247203826904
1770950694943405600,8.874405517578126,8.889366149902344,-7.14137077331543,-1.7081351280212402
1770950694962372900,8.893372802734374,6.639982223510742,-1.974482536315918,-1.6328423023223877
1770950694981340400,8.91234033203125,6.36361026763916,2.3246936798095703,0.6507995128631592
1770950695000307700,8.9313076171875,6.675108909606934,1.133232593536377,5.554644584655762
1770950695019275300,8.950275146484374,-6.44371223449707,-2.3983402252197266,4.991477012634277
1770950695038242600,8.96924267578125,-9.3385648727417,-3.08811092376709,8.659067153930664
1770950695057210000,8.988210205078126,-0.3461872339248657,0.46829986572265625,2.3376054763793945
1770950695076177400,9.007177490234374,-3.3016395568847656,-1.8475799560546875,-1.5141873359680176
1770950695095145000,9.02614501953125,13.868303298950195,-20.522315979003906,3.601579427719116
1770950695114112300,9.0451123046875,-6.954978942871094,-5.0246076583862305,0.005784034729003906
1770950695133079800,9.064079833984374,-6.949625492095947,1.0681743621826172,-1.7200833559036255
1770950695152047000,9.083047119140625,-5.7831711769104,-0.6084814071655273,0.32262492179870605
1770950695171014700,9.1020146484375,-1.5164440870285034,-3.7186965942382812,-0.3155217170715332
1770950695189982200,9.120982177734374,-0.8101613521575928,-2.0257911682128906,-0.274960994720459
1770950695208949500,9.139949462890625,-0.6583918333053589,-0.01596355438232422,-1.3540797233581543
1770950695227916800,9.158916748046876,1.0709624290466309,0.9667987823486328,-1.7649762630462646
1770950695246884400,9.17788427734375,4.39418363571167,1.3717951774597168,-2.1001834869384766
1770950695265851600,9.1968515625,6.0160932540893555,2.0695114135742188,-1.1784613132476807
1770950695284819200,9.215819091796876,3.9191555976867676,3.4575204849243164,-0.8253028392791748
1770950695303786800,9.234786865234375,2.81608247756958,4.485593795776367,-1.132556438446045
1770950695322754000,9.253754150390625,1.8713436126708984,4.628410816192627,-2.2258710861206055
1770950695341721600,9.2727216796875,1.7844443321228027,3.441166400909424,-3.131582736968994
1770950695360689000,9.29168896484375,0.44014883041381836,1.4974260330200195,-3.714998722076416
1770950695379656400,9.310656494140625,-0.2993086576461792,1.1469860076904297,-3.0329675674438477
1770950695398623700,9.329623779296876,0.07314455509185791,1.783289909362793,-2.4570608139038086
1770950695417591300,9.34859130859375,0.22132134437561035,1.4113054275512695,-2.9933135509490967
1770950695436558600,9.36755859375,3.749455451965332,-0.26873207092285156,-4.045213222503662
1770950695455526100,9.386526123046876,6.081201553344727,-3.0752744674682617,-3.8234310150146484
1770950695474493700,9.40549365234375,5.564828872680664,-5.5532426834106445,-2.252969264984131
1770950695493461000,9.4244609375,6.487865447998047,-7.627264022827148,1.1991190910339355
1770950695512428500,9.443428466796876,1.019536018371582,-10.880314826965332,2.9130237102508545
1770950695531395800,9.462395751953125,-4.979928016662598,-10.351676940917969,4.144847393035889
1770950695550363400,9.48136328125,-7.988603591918945,-7.6530609130859375,6.231170654296875
1770950695569330700,9.50033056640625,-4.87841272354126,-5.6353759765625,3.937825918197632
1770950695588298200,9.51929833984375,-1.4680655002593994,-2.3094282150268555,5.216696739196777
1770950695607265500,9.538265625,-2.401460647583008,0.7361283302307129,5.403892517089844
1770950695626233000,9.557233154296876,-3.204576253890991,2.9869279861450195,2.9265670776367188
1770950695645200600,9.57620068359375,-3.9709715843200684,5.054416656494141,1.1337425708770752
1770950695664168000,9.59516796875,-4.908376216888428,6.588694095611572,-0.22520148754119873
1770950695683135500,9.614135498046876,-4.884063243865967,7.035401344299316,-1.2597469091415405
1770950695702102800,9.633102783203125,-3.6095731258392334,7.638147354125977,-0.432918906211853
1770950695721070300,9.6520703125,-2.2625935077667236,7.895616054534912,1.301226019859314
1770950695740037600,9.67103759765625,-2.4628400802612305,7.3655571937561035,2.055438280105591
1770950695759005200,9.690005126953125,-3.6666810512542725,7.152349948883057,1.7619163990020752
1770950695777972700,9.70897265625,-2.821772575378418,6.634248733520508,0.9072983264923096
1770950695796940000,9.72793994140625,-2.71882963180542,3.3319897651672363,-0.9755656719207764
1770950695815907600,9.746907470703125,-2.0234081745147705,-5.646217346191406,-2.1631970405578613
1770950695834875000,9.765875,1.6928136348724365,-7.6246137619018555,-1.2120270729064941
1770950695853842400,9.784842529296874,9.289908409118652,-7.032428741455078,-2.2896475791931152
1770950695872810000,9.80381005859375,9.075979232788086,-2.016845703125,-0.9144563674926758
1770950695891777300,9.82277734375,9.221352577209473,0.5736637115478516,-0.08498740196228027
1770950695910744800,9.841744873046874,5.5439453125,-0.32037925720214844,3.18386173248291
1770950695929712000,9.860712158203125,-3.9904518127441406,-3.00301456451416,3.997471570968628
1770950695948679700,9.8796796875,-6.064853668212891,0.010711669921875,3.9719722270965576
1770950695967647200,9.898647216796874,-8.277020454406738,0.9597311019897461,0.4775574207305908
1770950695986614500,9.917614501953125,-11.413982391357422,-4.0729570388793945,1.770845651626587
1770950696005582000,9.93658203125,56.60712814331055,-23.443349838256836,1.8785123825073242
1770950696024549400,9.95554931640625,-10.038747787475586,-7.552696228027344,1.931950330734253
1770950696043517000,9.974516845703125,-9.064868927001953,0.7151870727539062,-0.562767744064331
1770950696062484500,9.993484375,-6.109762191772461,2.897233486175537,0.44629430770874023
1770950696081451800,10.01245166015625,-3.6510653495788574,0.8178901672363281,1.6283280849456787
1770950696100419300,10.03141943359375,-1.131023645401001,-1.4479217529296875,1.158174753189087
1770950696119387000,10.050386962890625,0.29686713218688965,-0.27395057678222656,0.3926413059234619
1770950696138354200,10.069354248046874,1.7788116931915283,0.22838497161865234,-1.0090723037719727
1770950696157321700,10.08832177734375,4.1642866134643555,1.1794872283935547,-1.4989680051803589
1770950696176289000,10.1072890625,5.239120960235596,2.5005412101745605,-1.8416014909744263
1770950696195256600,10.126256591796874,4.732810020446777,3.908724308013916,-2.0536632537841797
1770950696214224100,10.14522412109375,3.728750705718994,4.460806369781494,-1.5837249755859375
1770950696233191400,10.16419140625,2.9768290519714355,3.6011157035827637,-2.019679307937622
1770950696252159000,10.183158935546874,1.262681245803833,2.515066146850586,-2.9491305351257324
1770950696271126500,10.20212646484375,1.341905117034912,2.388401985168457,-3.7952473163604736
1770950696290093800,10.22109375,1.460151195526123,2.4071340560913086,-4.293510437011719
1770950696309061400,10.240061279296874,0.6179546117782593,1.911259651184082,-3.399705648422241
1770950696328029000,10.25902880859375,1.4104450941085815,0.2451038360595703,-3.291189432144165
1770950696346996200,10.277996337890626,2.494089126586914,-1.5669784545898438,-2.897935628890991
1770950696365963800,10.2969638671875,5.787902355194092,-5.032662391662598,-3.35125732421875
1770950696384931000,10.31593115234375,5.630087852478027,-8.560685157775879,-2.1685495376586914
1770950696403898600,10.334898681640626,3.900853395462036,-10.583142280578613,1.2693595886230469
1770950696422866200,10.3538662109375,0.6607635021209717,-10.33905029296875,3.1937508583068848
1770950696441833500,10.37283349609375,-4.685977935791016,-8.244303703308105,6.458215713500977
1770950696460801000,10.391801025390626,-6.35832405090332,-6.77301025390625,6.223240852355957
1770950696479768600,10.4107685546875,-2.946284770965576,-4.450471878051758,4.122134208679199
1770950696498735900,10.42973583984375,-2.0957934856414795,-1.229156494140625,4.864171028137207
1770950696517703400,10.448703369140626,-3.00073504447937,2.0859203338623047,3.5895256996154785
1770950696536671000,10.4676708984375,-4.690471649169922,3.9397993087768555,1.9955893754959106
1770950696555638300,10.48663818359375,-5.43915319442749,5.221997261047363,0.3466860055923462
1770950696574605800,10.505605712890626,-6.060723781585693,6.743142604827881,-0.5771977305412292
1770950696593573400,10.524573486328125,-5.222115993499756,7.72957181930542,-0.6674220561981201
1770950696612540700,10.543540771484375,-3.561583995819092,8.353541374206543,-0.08520138263702393
1770950696631508200,10.56250830078125,-2.005460500717163,9.123112678527832,0.8281130790710449
1770950696650475800,10.581475830078125,-1.9653794765472412,9.433143615722656,1.234360694885254
1770950696669443000,10.600443115234375,-2.470386505126953,9.228081703186035,1.49737548828125
1770950696688410600,10.61941064453125,-3.302412509918213,7.48699951171875,0.7448155879974365
1770950696707378200,10.638378173828125,-4.025137901306152,1.821009635925293,-0.6501903533935547
1770950696726345500,10.657345458984375,-2.2271852493286133,-11.33372688293457,-0.1550438404083252
1770950696745313000,10.67631298828125,1.933868408203125,-8.44727611541748,-1.2616527080535889
1770950696764280600,10.695280517578125,12.915884971618652,-6.455989837646484,-2.795599937438965
1770950696783248000,10.714247802734375,13.61043930053711,-2.061168670654297,-1.526832103729248
1770950696802215400,10.73321533203125,11.727846145629883,-1.1340675354003906,3.033512592315674
1770950696821183000,10.752182861328125,-7.637978553771973,0.49431610107421875,2.037242889404297
1770950696840150500,10.771150634765625,-12.046773910522461,0.016918182373046875,6.124151229858398
1770950696859117800,10.790117919921874,-7.113522529602051,-0.782109260559082,6.678740978240967
1770950696878085400,10.80908544921875,-1.9557865858078003,-7.9266767501831055,1.3259422779083252
1770950696897053000,10.828052978515625,14.677224159240723,-20.527915954589844,-1.605098009109497
1770950696916020200,10.847020263671874,-2.766072988510132,-4.898697853088379,2.9586188793182373
1770950696934987800,10.86598779296875,-5.0917792320251465,2.6786551475524902,2.774259567260742
1770950696953955300,10.884955322265625,-6.772121429443359,2.5104403495788574,0.7028541564941406
1770950696972923000,10.9039228515625,-4.867094039916992,0.5993871688842773,1.6206235885620117
1770950696991890200,10.92289013671875,0.151469886302948,-4.2684478759765625,0.031151771545410156
1770950697010857700,10.941857666015625,3.9724316596984863,-1.6751680374145508,-1.4842063188552856
1770950697029825300,10.9608251953125,3.462742328643799,1.4534950256347656,-2.6495156288146973
1770950697048792600,10.97979248046875,2.990199327468872,2.9705066680908203,-2.3093655109405518
1770950697067760000,10.998760009765626,3.1754348278045654,4.051225662231445,-1.1898295879364014
1770950697086727400,11.0177275390625,4.6637468338012695,5.27699613571167,-0.32991933822631836
1770950697105695000,11.036695068359375,3.847167491912842,4.902717590332031,-1.2341680526733398
1770950697124662500,11.05566259765625,1.38294517993927,4.044361591339111,-2.0831046104431152
1770950697143630000,11.074630126953124,2.326955795288086,2.595191478729248,-3.6728622913360596
1770950697162597400,11.093597412109375,4.867336750030518,1.1177291870117188,-4.2578020095825195
1770950697181565000,11.11256494140625,5.750486373901367,0.6357316970825195,-3.274298667907715
1770950697200532500,11.131532470703124,3.257429361343384,0.9597606658935547,-1.522339105606079
1770950697219500000,11.1505,2.4549365043640137,-0.014678955078125,-0.1196286678314209
1770950697238467300,11.16946728515625,6.403365135192871,-3.2467384338378906,-0.268826961517334
1770950697257435000,11.188434814453124,3.458223342895508,-8.1652250289917,1.1900107860565186
1770950697276402400,11.20740234375,-2.7681710720062256,-9.604182243347168,1.4393928050994873
1770950697295370000,11.226369873046876,-6.141645431518555,-11.115998268127441,0.9084615707397461
1770950697314337300,11.245337158203125,-3.817728042602539,-11.851625442504883,2.393629789352417
1770950697333304800,11.264304931640625,-2.655548095703125,-10.276033401489258,4.114075183868408
1770950697352272400,11.2832724609375,1.2211337089538574,-2.853419303894043,6.841268539428711
1770950697371240000,11.302239990234375,-1.6608030796051025,3.5066170692443848,4.500945091247559
1770950697390207200,11.321207275390625,-3.49446964263916,6.277166366577148,1.174126386642456
1770950697409174800,11.3401748046875,-4.627857208251953,6.594790935516357,0.4513704776763916
1770950697428142300,11.359142333984375,-5.333272933959961,6.714966297149658,0.006155133247375488
1770950697447110000,11.37810986328125,-4.79393196105957,6.9194231033325195,0.40221214294433594
1770950697466077200,11.3970771484375,-3.4304511547088623,7.622048854827881,1.3610174655914307
1770950697485044700,11.416044677734375,-2.642523765563965,8.232694625854492,1.9952282905578613
1770950697504012300,11.43501220703125,-2.2023091316223145,8.556818008422852,2.0965635776519775
1770950697522979800,11.453979736328124,-2.1042819023132324,8.783524513244629,2.1810302734375
1770950697541947100,11.472947021484375,-2.2847089767456055,8.155675888061523,1.9518773555755615
1770950697560914700,11.491914794921875,-2.4472086429595947,1.7977709770202637,0.11732888221740723
1770950697579882200,11.51088232421875,-0.37963950634002686,-8.653125762939453,-1.7579022645950317
1770950697598849800,11.529849853515625,5.7040181159973145,-8.880254745483398,-6.0133056640625
1770950697617817000,11.548817138671875,12.833699226379395,-7.925835609436035,-5.660603046417236
1770950697636784600,11.56778466796875,7.698551177978516,-1.5219287872314453,-1.7790663242340088
1770950697655752200,11.586752197265625,1.6030915975570679,1.5754075050354004,2.4338645935058594
1770950697674719700,11.6057197265625,-1.2364716529846191,1.2001152038574219,6.268641948699951
1770950697693687000,11.62468701171875,-6.801408290863037,-0.14087677001953125,12.911637306213379
1770950697712654600,11.643654541015625,-1.7182371616363525,-0.21694564819335938,5.209255218505859
1770950697731622100,11.6626220703125,-6.261780738830566,-2.224959373474121,-0.2412881851196289
1770950697750589700,11.681589599609374,-12.36303997039795,-10.196590423583984,-0.5159320831298828
1770950697769557000,11.700556884765625,11.958429336547852,-17.9575138092041,-2.7545862197875977
1770950697788524500,11.719524658203126,8.42986011505127,-5.9807891845703125,0.698667049407959
1770950697807492000,11.7384921875,-3.1398441791534424,-1.382547378540039,0.9912688732147217
1770950697826459400,11.75745947265625,-4.128755569458008,-0.17421627044677734,-0.5653047561645508
1770950697845427000,11.776427001953126,-3.8359029293060303,0.5045137405395508,-1.4391834735870361
1770950697864394500,11.79539453125,-2.5641961097717285,2.028362274169922,-2.196074962615967
1770950697883362000,11.814362060546875,-0.06794965267181396,3.8497371673583984,-1.2989170551300049
1770950697902329600,11.83332958984375,2.650357723236084,4.309299468994141,0.02315974235534668
1770950697921297000,11.852296875,4.19041109085083,3.7802248001098633,1.7596876621246338
1770950697940264400,11.871264404296875,5.177533149719238,2.4715051651000977,1.3481574058532715
1770950697959232000,11.89023193359375,6.56430721282959,2.6639962196350098,-0.8030967712402344
1770950697978199600,11.909199462890625,7.451849937438965,2.9051923751831055,-2.666900157928467
1770950697997167000,11.9281669921875,3.1004114151000977,1.6412906646728516,-4.354092597961426
1770950698016134400,11.947134521484376,-1.7953474521636963,0.10346221923828125,-4.994695663452148
1770950698035102000,11.96610205078125,-0.05049419403076172,-0.42751026153564453,-6.674786567687988
1770950698054069500,11.985069580078125,5.174738883972168,-3.8498668670654297,-8.490310668945312
1770950698073036800,12.004036865234376,7.229274272918701,-3.818788528442383,-8.669424057006836
1770950698092004400,12.02300439453125,6.948220729827881,-3.625825881958008,-8.151309967041016
1770950698110972000,12.041971923828125,5.9318318367004395,-6.547510147094727,-7.999256134033203
1770950698129939500,12.060939453125,-1.6103790998458862,-9.042684555053711,-7.202428817749023
1770950698148907000,12.079906982421875,-2.225710868835449,-8.554047584533691,0.04529619216918945
1770950698167874300,12.098874267578125,-1.6811636686325073,-9.830168724060059,4.884815216064453
1770950698186841900,12.117841796875,-2.1138827800750732,-13.085297584533691,10.832344055175781
1770950698205809400,12.136809326171875,-0.467634379863739,-13.310188293457031,17.194150924682617
1770950698224777000,12.15577685546875,4.845142364501953,-9.738581657409668,16.18807029724121
1770950698243744300,12.174744140625,3.8108463287353516,-3.21954345703125,10.541470527648926
1770950698262711800,12.1937119140625,-3.0692028999328613,-0.7428998947143555,6.964975357055664
1770950698281679400,12.212679443359375,-7.299924850463867,1.5367403030395508,3.631308078765869
1770950698300647000,12.23164697265625,-8.513147354125977,1.8788375854492188,1.0563923120498657
1770950698319614200,12.2506142578125,-0.6044081449508667,-0.46707820892333984,-1.8784904479980469
1770950698338581800,12.269581787109376,-2.841420888900757,2.4801101684570312,2.2184107303619385
1770950698357549300,12.28854931640625,-6.7955427169799805,6.209677696228027,2.1489431858062744
1770950698376516900,12.307516845703125,-6.477758407592773,10.297616958618164,0.5153104066848755
1770950698395484400,12.326484375,-5.5991411209106445,13.340353965759277,-0.2643101215362549
1770950698414451700,12.34545166015625,-5.605025768280029,14.42055892944336,-0.4897207021713257
1770950698433419300,12.364419189453125,-6.588534355163574,13.456220626831055,-1.0025140047073364
1770950698452386800,12.38338671875,-5.07852029800415,9.3998441696167,-1.5796051025390625
1770950698471354400,12.402354248046874,1.2761516571044922,5.808326721191406,0.2196362018585205
1770950698490321700,12.42132177734375,14.085325241088867,0.01917552947998047,3.163045883178711
1770950698509289200,12.440289306640626,26.286022186279297,-20.949050903320312,3.2723917961120605
1770950698528256800,12.4592568359375,4.009922981262207,-26.184907913208008,-3.7017173767089844
1770950698547224300,12.478224365234375,2.8299553394317627,-0.2602071762084961,1.0190134048461914
1770950698566191900,12.49719189453125,6.498000144958496,7.665912628173828,7.605690956115723
1770950698585159200,12.5161591796875,-17.070585250854492,-0.38408565521240234,16.553890228271484
1770950698604126700,12.535126708984375,-9.457589149475098,-3.4265241622924805,7.999378204345703
1770950698623094300,12.55409423828125,-11.128717422485352,3.6034140586853027,5.2207255363464355
1770950698642061800,12.573061767578125,-8.151665687561035,6.789566993713379,4.634295463562012
1770950698661029000,12.592029052734375,-6.571568489074707,3.868558406829834,4.981825828552246
1770950698679996700,12.61099658203125,-6.584685802459717,0.5793514251708984,6.854108810424805
1770950698698964200,12.629964111328125,-7.357020378112793,-1.7792949676513672,7.955631256103516
1770950698717931800,12.648931884765625,-6.767489433288574,-5.533447265625,3.5591225624084473
1770950698736899000,12.667899169921874,-7.212368011474609,-4.5830888748168945,0.7235720157623291
1770950698755866600,12.68686669921875,-2.6324431896209717,-5.71474552154541,-6.777060508728027
1770950698774834200,12.705834228515625,11.523292541503906,-6.461812973022461,-12.543931007385254
1770950698793801700,12.7248017578125,2.8878040313720703,0.2563638687133789,-7.542043685913086
1770950698812769300,12.743769287109375,-3.620182991027832,2.3544387817382812,-2.364267110824585
1770950698831736600,12.762736572265625,-1.2616699934005737,2.7499237060546875,-1.0575995445251465
1770950698850704100,12.7817041015625,-0.5264214277267456,2.3392910957336426,-0.33907270431518555
1770950698869671700,12.800671630859375,-0.3539842367172241,2.1107277870178223,-0.044913530349731445
1770950698888639200,12.81963916015625,0.47877001762390137,1.0272493362426758,0.14441657066345215
1770950698907606500,12.8386064453125,3.881161689758301,-1.5084705352783203,-0.6107373237609863
1770950698926574000,12.857573974609375,8.098771095275879,-1.9723424911499023,-1.139134168624878
1770950698945541600,12.876541748046876,7.691661834716797,-1.4926834106445312,-2.0551609992980957
1770950698964509200,12.89550927734375,5.246920585632324,-2.0870847702026367,-3.111724376678467
1770950698983476700,12.914476806640625,4.542989730834961,-3.5213985443115234,-4.787413597106934
1770950699002444000,12.933444091796876,2.1236119270324707,-4.84320068359375,-6.459883689880371
1770950699021411600,12.95241162109375,0.17671751976013184,-3.7246017456054688,-6.77449893951416
1770950699040379100,12.971379150390625,1.060315489768982,-3.0218162536621094,-6.9579620361328125
1770950699059346700,12.9903466796875,5.303382873535156,-2.93170166015625,-5.173478603363037
1770950699078314200,13.009314208984375,8.285382270812988,-4.309481620788574,-2.9427366256713867
1770950699097281500,13.028281494140625,7.302037239074707,-5.2890424728393555,0.09994912147521973
1770950699116249000,13.0472490234375,4.806468486785889,-3.63455867767334,3.9599437713623047
1770950699135216600,13.066216552734375,1.9559900760650635,-4.468181610107422,5.359519004821777
1770950699154184000,13.085183837890625,2.7161448001861572,-6.05094051361084,3.886470317840576
1770950699173151500,13.1041513671875,-1.8734451532363892,-5.198237419128418,6.173052787780762
1770950699192119000,13.123119140625,-4.463967800140381,-6.263869285583496,9.527665138244629
1770950699211086600,13.142086669921875,-5.0303802490234375,-4.484704971313477,12.448484420776367
1770950699230054100,13.16105419921875,-1.931670904159546,-1.2241954803466797,8.595301628112793
1770950699249021400,13.180021484375,1.8636863231658936,-2.0390090942382812,1.1049420833587646
1770950699267989000,13.198989013671875,-0.594444990158081,-1.738372802734375,0.43756747245788574
1770950699286956500,13.21795654296875,-8.064813613891602,-0.7329511642456055,-0.2537379264831543
1770950699305924000,13.236924072265625,-4.714317321777344,0.2091236114501953,-1.6421544551849365
1770950699324891600,13.2558916015625,-6.250095367431641,2.6684823036193848,-0.6064748764038086
1770950699343859000,13.27485888671875,-6.107514381408691,4.732964038848877,0.3690001964569092
1770950699362826500,13.293826416015625,-5.871389389038086,6.904789924621582,0.9423516988754272
1770950699381794000,13.3127939453125,-5.512005805969238,7.763647079467773,1.6256440877914429
1770950699400761600,13.33176171875,-6.324432373046875,8.13129997253418,1.3310023546218872
1770950699419729000,13.35072900390625,-7.345949172973633,9.08554458618164,1.8969331979751587
1770950699438696400,13.369696533203125,-7.491655349731445,9.299379348754883,1.1273775100708008
1770950699457664000,13.3886640625,-7.061089515686035,7.544588565826416,-1.113330364227295
1770950699476631600,13.407631591796875,-3.6771726608276367,5.585038185119629,-2.284841775894165
1770950699495598800,13.426598876953125,3.6684699058532715,3.92929744720459,-2.243098258972168
1770950699514566400,13.44556640625,16.941675186157227,1.6074042320251465,-1.0068223476409912
1770950699533534000,13.464533935546875,17.865032196044922,-8.870599746704102,-1.9278146028518677
1770950699552501500,13.48350146484375,2.9316673278808594,-17.50574493408203,1.0316205024719238
1770950699571469000,13.502468994140624,3.155426502227783,-11.48898983001709,4.454201698303223
1770950699590436600,13.5214365234375,5.4915618896484375,0.5618190765380859,6.0009565353393555
1770950699609404000,13.54040380859375,2.3163974285125732,3.7097220420837402,4.661382675170898
1770950699628371500,13.559371337890624,-5.213798999786377,4.27736759185791,5.793494701385498
1770950699647339000,13.578339111328125,-1.9333316087722778,-0.44750022888183594,10.151933670043945
1770950699666306600,13.597306640625,-10.098029136657715,-3.6152725219726562,5.068755149841309
1770950699685274000,13.616274169921875,-11.733417510986328,2.549907684326172,0.28851985931396484
1770950699704241400,13.635241455078125,-9.291936874389648,3.539182662963867,-0.9881755113601685
1770950699723209000,13.654208984375,-9.623891830444336,2.9107513427734375,-1.485231876373291
1770950699742176500,13.673176513671875,-8.237232208251953,1.574880599975586,2.511626958847046
1770950699761144000,13.69214404296875,-3.2598366737365723,-0.5366401672363281,3.7383873462677
1770950699780111600,13.711111572265626,-2.601372003555298,-3.797337532043457,1.6141443252563477
1770950699799079000,13.730078857421875,-9.428342819213867,-6.738100051879883,0.23046445846557617
1770950699818046500,13.74904638671875,9.969855308532715,-6.631356239318848,-6.312228202819824
1770950699837014000,13.768013916015626,7.205825328826904,-1.0654964447021484,-5.369800567626953
1770950699855981600,13.786981689453125,0.41590166091918945,0.12163925170898438,-4.321357727050781
1770950699874949000,13.80594921875,-4.7353949546813965,0.6507768630981445,-1.6144261360168457
1770950699893916700,13.824916748046874,-4.163455009460449,1.8996038436889648,-2.279642105102539
1770950699912884000,13.843884033203125,-3.4925737380981445,2.767454147338867,-2.1366567611694336
1770950699931851500,13.8628515625,-2.749779224395752,2.9369254112243652,-1.0313060283660889
1770950699950819000,13.881819091796874,-1.8917055130004883,2.6333565711975098,0.11579346656799316
1770950699969786600,13.90078662109375,0.07345294952392578,1.448925495147705,1.1641173362731934
1770950699988754200,13.919754150390625,4.873481750488281,-0.6557426452636719,1.0873265266418457
1770950700007721500,13.938721435546874,8.258902549743652,-0.11302852630615234,0.4275975227355957
1770950700026689000,13.95768896484375,4.334045886993408,-0.13700199127197266,-1.8354027271270752
1770950700045656600,13.976656494140625,1.967726469039917,-2.351896286010742,-3.4929893016815186
1770950700064624000,13.9956240234375,4.020103931427002,-3.6590042114257812,-4.283562660217285
1770950700083591700,14.014591796875,5.722415924072266,-3.5204639434814453,-4.630488395690918
1770950700102559200,14.033559326171876,1.6432349681854248,-3.7607650756835938,-5.225633144378662
1770950700121526500,14.052526611328124,-1.9843342304229736,-4.057514190673828,-5.536965847015381
1770950700140494000,14.071494140625,0.6914985179901123,-4.227845191955566,-4.6390533447265625
1770950700159461600,14.090461669921876,5.380541801452637,-5.127283096313477,-2.585538625717163
1770950700178429200,14.10942919921875,7.113048553466797,-5.695331573486328,-1.7383253574371338
1770950700197396700,14.128396728515625,3.338078498840332,-4.552489280700684,-1.461244821548462
1770950700216364300,14.1473642578125,1.2376275062561035,-4.74102783203125,-0.2978980541229248
1770950700235331600,14.16633154296875,3.4424824714660645,-5.830021858215332,-2.2005648612976074
1770950700254299100,14.185299072265625,0.6615985035896301,-5.741057395935059,0.19664525985717773
1770950700273266700,14.2042666015625,-3.466853618621826,-5.023946762084961,5.663222789764404
1770950700292234200,14.223234130859375,-5.088614463806152,-5.157473564147949,9.674215316772461
1770950700311201800,14.242201904296875,-4.494922161102295,-4.1605424880981445,11.208834648132324
1770950700330169300,14.26116943359375,-1.7741214036941528,-1.2696952819824219,7.856884479522705
1770950700349136600,14.28013671875,1.3087224960327148,-0.5154314041137695,3.4689552783966064
1770950700368104200,14.299104248046875,-2.3907978534698486,-1.363785743713379,1.4336802959442139
1770950700387071700,14.31807177734375,-7.650018215179443,-1.4226980209350586,-0.766893744468689
1770950700406039300,14.337039306640625,-4.872544288635254,-1.9976539611816406,-2.545482635498047
1770950700425006800,14.3560068359375,-5.028687000274658,1.9652161598205566,-0.24208152294158936
1770950700443974100,14.37497412109375,-5.9169230461120605,5.804104804992676,0.8692938089370728
1770950700462941700,14.393941650390625,-5.500801086425781,7.271089553833008,1.085985541343689
1770950700481909200,14.4129091796875,-6.371401309967041,7.305811882019043,1.3334826231002808
1770950700500876800,14.431876708984374,-6.595061302185059,7.595091819763184,1.7103086709976196
1770950700519844400,14.45084423828125,-7.038370132446289,8.177062034606934,2.4983723163604736
1770950700538812000,14.46981201171875,-8.192262649536133,7.866564750671387,2.5565242767333984
1770950700557779200,14.488779296875,-6.9272966384887695,6.118751525878906,1.080730676651001
1770950700576746800,14.507746826171875,-3.253648519515991,4.350763320922852,-0.10781395435333252
1770950700595714300,14.52671435546875,0.8856968879699707,2.8114538192749023,-0.5938255786895752
1770950700614681900,14.545681884765624,3.9822306632995605,1.1936817169189453,-0.9292130470275879
1770950700633649400,14.5646494140625,7.414035320281982,-2.692225456237793,-2.209907054901123
1770950700652617000,14.583616943359376,10.207587242126465,-8.369190216064453,-4.6993818283081055
1770950700671584500,14.60258447265625,5.4973883628845215,-10.419078826904297,-2.899726152420044
1770950700690551800,14.6215517578125,4.778815269470215,-6.238445281982422,0.4625735282897949
1770950700709519400,14.640519287109376,4.976946830749512,-1.9247798919677734,3.4637439250946045
1770950700728487000,14.65948681640625,4.495567321777344,-2.417451858520508,6.004014015197754
1770950700747454500,14.678454345703125,3.154508590698242,-4.984653472900391,4.523323059082031
1770950700766422000,14.697422119140626,-5.399023056030273,-3.0785703659057617,6.474419593811035
1770950700785389600,14.7163896484375,-7.733216762542725,4.879293441772461,6.087951183319092
1770950700804357000,14.735357177734375,-9.783775329589844,8.46259880065918,2.4169111251831055
1770950700823324400,14.754324462890626,-14.769274711608887,4.0244340896606445,-1.1868278980255127
1770950700842292000,14.7732919921875,-13.952274322509766,0.3016777038574219,-0.0075452327728271484
1770950700861259500,14.792259521484375,-7.752799987792969,-3.452089309692383,0.7451937198638916
1770950700880227000,14.81122705078125,2.269822597503662,-8.408337593078613,3.3432934284210205
1770950700899194600,14.830194580078125,-4.540113925933838,-7.567963600158691,1.8242981433868408
1770950700918162200,14.849162109375,-0.7180968523025513,-1.8648529052734375,-0.12504935264587402
1770950700937129700,14.868129638671874,-3.711270570755005,1.4340696334838867,0.965888500213623
1770950700956097000,14.887096923828125,-2.3438401222229004,2.1740055084228516,0.9308128356933594
1770950700975064600,14.906064697265625,-1.1759275197982788,1.998460292816162,-0.48379087448120117
1770950700994032000,14.9250322265625,-0.9210865497589111,0.7517919540405273,-1.7760292291641235
1770950701012999700,14.943999755859375,-0.34399735927581787,-0.3556690216064453,-2.8579251766204834
1770950701031967200,14.96296728515625,0.3160221576690674,-0.20596694946289062,-1.8798482418060303
1770950701050934800,14.981934814453124,0.6696041822433472,0.8286733627319336,-1.263038992881775
1770950701069902300,15.00090234375,1.74811851978302,1.3709392547607422,-1.583678960800171
1770950701088870000,15.019869873046876,2.278440237045288,0.9712619781494141,-1.5017949342727661
1770950701107837200,15.038837158203124,2.170449733734131,0.5541267395019531,-1.0798413753509521
1770950701126804700,15.0578046875,2.519778251647949,0.26876258850097656,-1.5642284154891968
1770950701145772300,15.076772216796876,2.4550232887268066,0.8903465270996094,-1.7782464027404785
1770950701164739800,15.09573974609375,0.29876506328582764,2.8021111488342285,-1.888788104057312
1770950701183707400,15.114707275390625,0.008116841316223145,3.619173526763916,-1.4399982690811157
1770950701202675000,15.133675048828126,-0.29222166538238525,2.2191038131713867,-0.4895493984222412
1770950701221642500,15.152642578125,1.71232271194458,0.4055919647216797,-0.3134589195251465
1770950701240610000,15.171610107421875,0.8441829681396484,-0.0648965835571289,0.013465166091918945
1770950701259577300,15.190577392578126,-1.0620968341827393,1.9478449821472168,-0.49202585220336914
1770950701278545000,15.209544921875,-0.9765451550483704,2.909590244293213,-1.9931414127349854
1770950701297512400,15.228512451171875,-0.045575737953186035,1.129835605621338,-3.3638765811920166
1770950701316480000,15.24747998046875,-0.6490556001663208,-0.633936882019043,-3.5533411502838135
1770950701335447600,15.266447509765625,-1.4653581380844116,-1.3031864166259766,-3.6755661964416504
1770950701354415000,15.2854150390625,0.3202955722808838,-0.5374088287353516,-4.141270637512207
1770950701373382700,15.304382568359374,3.410780191421509,-0.011178970336914062,-3.1295039653778076
1770950701392350200,15.32335009765625,6.307108402252197,0.11902141571044922,-1.424567461013794
1770950701411317800,15.34231787109375,5.2100830078125,-2.1144752502441406,-0.0935204029083252
1770950701430285000,15.36128515625,2.7980570793151855,-3.647611618041992,2.171722650527954
1770950701449252600,15.380252685546875,3.4134280681610107,-7.286860466003418,2.3994739055633545
1770950701468220200,15.39922021484375,-0.7152695655822754,-12.504470825195312,3.4740116596221924
1770950701487187700,15.418187744140624,-5.235344886779785,-12.652655601501465,6.66002082824707
1770950701506155300,15.4371552734375,-2.342881679534912,-10.842245101928711,5.913458824157715
1770950701525122800,15.456122802734376,-0.9677057266235352,-3.3213815689086914,6.051076889038086
1770950701544090400,15.47509033203125,-1.8164448738098145,3.3063011169433594,5.751741886138916
1770950701563058000,15.494057861328125,-1.4917960166931152,3.787954807281494,4.319406986236572
1770950701582025500,15.513025390625,-4.009161472320557,2.6361546516418457,2.4736461639404297
1770950701600992800,15.53199267578125,-4.014489650726318,2.10678768157959,0.425174355506897
1770950701619960300,15.550960205078125,-3.7807536125183105,2.8089327812194824,0.1732184886932373
1770950701638928000,15.569927978515626,-4.571496963500977,4.182758808135986,0.4285726547241211
1770950701657895400,15.5888955078125,-5.148868083953857,4.9068427085876465,0.5116227865219116
1770950701676863000,15.607863037109375,-5.078911304473877,5.323192596435547,0.6807296276092529
1770950701695830500,15.62683056640625,-3.957693576812744,6.76912784576416,1.2080004215240479
1770950701714798000,15.645798095703125,-3.412123918533325,8.755617141723633,1.574824571609497
1770950701733765600,15.664765625,-3.999450922012329,10.37630558013916,1.5728802680969238
1770950701752733200,15.683733154296876,-5.005086898803711,9.856367111206055,0.556755781173706
1770950701771700700,15.70270068359375,-5.426352500915527,5.891664505004883,-1.6237173080444336
1770950701790668000,15.72166796875,-4.86165189743042,1.4150853157043457,-4.093210697174072
1770950701809635600,15.740635498046874,-3.0919530391693115,-5.952404022216797,-4.470151424407959
1770950701828603100,15.75960302734375,0.003256559371948242,-15.031309127807617,-0.6600637435913086
1770950701847570700,15.77857080078125,5.177778244018555,-6.397444725036621,-0.41092658042907715
1770950701866538200,15.797538330078124,10.192988395690918,-2.4901790618896484,-1.0973107814788818
1770950701885505800,15.816505859375,9.82391357421875,-0.3798360824584961,0.28441691398620605
1770950701904473300,15.835473388671875,11.897534370422363,-1.4441194534301758,4.152504920959473
1770950701923441000,15.85444091796875,6.062051773071289,-3.0879459381103516,3.8594765663146973
1770950701942408400,15.873408447265625,-4.497074127197266,-0.5406579971313477,2.580005407333374
1770950701961376000,15.8923759765625,-10.573139190673828,0.9773931503295898,5.327802658081055
1770950701980343600,15.911343505859374,-5.392379283905029,0.31647396087646484,5.382832050323486
1770950701999310800,15.930310791015625,-3.4550914764404297,-4.783500671386719,2.2827794551849365
1770950702018278400,15.9492783203125,30.79342269897461,-22.315156936645508,-10.965299606323242
1770950702037246000,15.968245849609374,-8.654308319091797,-6.116476058959961,-2.823702812194824
1770950702056213500,15.987213623046875,-8.435375213623047,1.7419376373291016,-1.3178528547286987
1770950702075181000,16.00618115234375,-7.078660011291504,2.062972068786621,-0.7016596794128418
1770950702094148600,16.025148681640626,-3.713756561279297,-1.9373235702514648,1.4192469120025635
1770950702113116200,16.0441162109375,7.799615859985352,-3.776045799255371,0.33944177627563477
1770950702132083700,16.063083740234376,3.210139274597168,-0.3935279846191406,0.4492778778076172
1770950702151051300,16.08205126953125,-1.3191659450531006,2.352888584136963,0.9381539821624756
1770950702170018800,16.101018798828125,-0.2755510210990906,4.548933982849121,-0.01661968231201172
1770950702188986400,16.119986328125,2.4620704650878906,4.357215881347656,-0.9258027076721191
1770950702207953700,16.13895361328125,5.346632957458496,3.1413755416870117,-1.9490524530410767
1770950702226921200,16.157921142578125,2.888676404953003,2.6400580406188965,-2.3901546001434326
1770950702245888800,16.176888671875,-1.0583243370056152,3.6449079513549805,-1.832165002822876
1770950702264856300,16.195856201171875,-0.5035463571548462,3.4141249656677246,-3.103163242340088
1770950702283823900,16.214823974609374,2.868307113647461,1.3769941329956055,-3.869985342025757
1770950702302791400,16.23379150390625,2.5159525871276855,0.8786106109619141,-2.601349353790283
1770950702321759000,16.252759033203127,1.1597449779510498,2.3171706199645996,-0.9434056282043457
1770950702340726500,16.2717265625,1.677709698677063,2.4195427894592285,0.09950494766235352
1770950702359694000,16.290694091796876,4.112039089202881,0.047603607177734375,-0.5767683982849121
1770950702378661600,16.30966162109375,5.100863933563232,-5.451056480407715,-2.018556833267212
1770950702397629000,16.32862890625,4.5372819900512695,-9.208641052246094,-2.4550318717956543
1770950702416596700,16.3475966796875,4.724906921386719,-11.026127815246582,-1.0807820558547974
1770950702435564000,16.36656396484375,-0.3216588497161865,-10.712141036987305,1.818267822265625
1770950702454531600,16.385531494140626,-6.153880596160889,-9.224554061889648,5.795244216918945
1770950702473499100,16.4044990234375,-6.718374729156494,-7.948925971984863,6.3788557052612305
1770950702492466700,16.423466796875,-3.7737390995025635,-4.709019660949707,3.069135904312134
1770950702511434200,16.442434326171874,-2.473013401031494,0.31467294692993164,4.587400913238525
1770950702530401800,16.46140185546875,-3.9302732944488525,2.350078582763672,4.650663375854492
1770950702549369300,16.480369384765623,-5.54396390914917,4.058407783508301,3.7412586212158203
1770950702568337000,16.4993369140625,-5.895272254943848,5.422167778015137,1.9789962768554688
1770950702587304400,16.518304443359376,-5.4649481773376465,6.242279529571533,0.3068181276321411
1770950702606272000,16.53727197265625,-4.073497772216797,7.144501209259033,0.16660857200622559
1770950702625239600,16.556239501953126,-3.2035346031188965,8.386946678161621,1.2803843021392822
1770950702644207000,16.57520703125,-2.7194762229919434,9.03673267364502,1.9874029159545898
1770950702663174700,16.594174560546875,-2.5620920658111572,8.412384986877441,0.8737572431564331
1770950702682142000,16.613141845703126,-3.3365373611450195,7.388708591461182,-0.5295298099517822
1770950702701109500,16.632109619140625,-3.4844045639038086,6.054050445556641,-1.34647536277771
1770950702720077000,16.6510771484375,-3.4211583137512207,1.8496475219726562,-2.0818700790405273
1770950702739044600,16.670044677734374,-1.8316386938095093,-12.453537940979004,-2.5030016899108887
1770950702758012200,16.68901220703125,4.127467155456543,-12.746625900268555,0.19303631782531738
1770950702776979700,16.707979736328124,14.617623329162598,-6.216357231140137,0.06154465675354004
1770950702795947300,16.726947265625,13.503613471984863,-1.0808372497558594,-1.8839507102966309
1770950702814914800,16.745914794921877,6.8643717765808105,0.5353336334228516,-1.2240374088287354
1770950702833882400,16.76488232421875,-4.030132293701172,1.4416890144348145,-0.25374412536621094
1770950702852850000,16.783849853515626,-7.638731002807617,1.7616734504699707,3.2412500381469727
1770950702871817200,16.802817138671877,-12.16512393951416,-0.2941417694091797,5.306140899658203
1770950702890784800,16.82178466796875,-6.946077823638916,-4.229728698730469,7.26813268661499
1770950702909752300,16.84075244140625,29.621109008789062,-19.887054443359375,4.585220813751221
1770950702928720000,16.859719970703125,-1.4587032794952393,-8.518585205078125,0.8165349960327148
1770950702947687400,16.8786875,-9.243849754333496,1.105804443359375,0.6373884677886963
1770950702966655000,16.897655029296875,-6.15434455871582,4.040611743927002,-0.5971598625183105
1770950702985622500,16.91662255859375,-6.834224700927734,1.4212360382080078,0.1293036937713623
1770950703004590000,16.935590087890624,-5.168796539306641,-3.6237030029296875,0.21886157989501953
1770950703023557600,16.9545576171875,0.7842298150062561,-2.3455848693847656,-1.3992371559143066
1770950703042525200,16.973525146484373,3.911714792251587,-0.3096179962158203,-2.4178659915924072
1770950703061492700,16.99249267578125,4.209223747253418,0.8804960250854492,-2.033918857574463
1770950703080460000,17.0114599609375,2.407447099685669,2.6396589279174805,0.5741705894470215
1770950703099427600,17.030427490234374,3.895418405532837,4.9683003425598145,1.6338756084442139
1770950703118395100,17.04939501953125,4.747156143188477,5.984860420227051,0.43909549713134766
1770950703137362700,17.06836279296875,0.5508366823196411,4.667934894561768,-1.5776416063308716
1770950703156330200,17.087330322265625,-0.8984192609786987,3.5758056640625,-2.7433927059173584
1770950703175297800,17.1062978515625,-0.7210354208946228,2.3137669563293457,-3.651679754257202
1770950703194265300,17.125265380859375,2.5707297325134277,-0.1534566879272461,-4.813827037811279
1770950703213233000,17.14423291015625,3.769777297973633,-1.162196159362793,-4.0615081787109375
1770950703232200400,17.163200439453124,1.4615168571472168,0.6754293441772461,-1.2582075595855713
1770950703251168000,17.18216796875,3.3320207595825195,1.6389541625976562,-0.20834898948669434
1770950703270135600,17.201135498046874,5.761510848999023,-0.5561895370483398,-0.9132966995239258
1770950703289102800,17.220102783203124,4.6595354080200195,-5.413910865783691,-2.1450092792510986
1770950703308070400,17.2390703125,6.10549259185791,-8.832222938537598,-0.7178490161895752
1770950703327038000,17.258037841796874,2.7608883380889893,-10.955636024475098,0.5270676612854004
1770950703346005500,17.277005615234376,-3.074185371398926,-10.45906925201416,3.4889955520629883
1770950703364973000,17.29597314453125,-5.767385482788086,-9.162280082702637,5.703408241271973
1770950703383940600,17.314940673828126,-7.790234565734863,-6.511286735534668,5.395349979400635
1770950703402908200,17.333908203125,-3.063685178756714,-2.428577423095703,3.136573314666748
1770950703421875700,17.352875732421875,-2.9579107761383057,1.6392035484313965,3.6374006271362305
1770950703440843300,17.37184326171875,-3.1732468605041504,3.4327545166015625,2.952052354812622
1770950703459810800,17.390810791015625,-4.803627014160156,5.113834381103516,2.4259796142578125
1770950703478778000,17.409778076171875,-4.576517581939697,5.635478973388672,1.1488821506500244
1770950703497745700,17.42874560546875,-4.227840900421143,6.518587589263916,0.21394765377044678
1770950703516713200,17.447713134765625,-3.1642954349517822,7.068732738494873,0.016935229301452637
1770950703535680800,17.4666806640625,-2.9471688270568848,8.06419849395752,1.4101228713989258
1770950703554648300,17.4856484375,-3.6517674922943115,8.565389633178711,1.816061019897461
1770950703573615900,17.504615966796877,-3.53652286529541,8.367984771728516,1.3956102132797241
1770950703592583400,17.52358349609375,-2.6726596355438232,7.144681930541992,0.734689474105835
1770950703611551000,17.542551025390626,-3.2404024600982666,4.195531368255615,-1.0509202480316162
1770950703630518500,17.5615185546875,-3.5410170555114746,-5.157474517822266,-3.6258890628814697
1770950703649485800,17.58048583984375,0.10613727569580078,-11.248377799987793,-1.7495529651641846
1770950703668453400,17.599453369140626,5.853859901428223,-6.19145393371582,-0.8032205104827881
1770950703687421000,17.6184208984375,11.002013206481934,-2.339536666870117,0.03386664390563965
1770950703706388500,17.637388427734376,9.875378608703613,-0.3677978515625,0.3885035514831543
1770950703725356000,17.65635595703125,1.9436709880828857,0.4755134582519531,1.3718278408050537
1770950703744323600,17.675323486328125,-4.958840370178223,-0.41102027893066406,2.5984973907470703
1770950703763291100,17.694291015625,-8.289652824401855,-2.644963264465332,6.896306991577148
1770950703782258700,17.7132587890625,-1.7016892433166504,-4.680988311767578,4.930707931518555
1770950703801226000,17.73222607421875,17.499361038208008,-13.06503963470459,-1.667176604270935
1770950703820193500,17.751193603515624,-2.4567837715148926,-12.457554817199707,-1.3294317722320557
1770950703839161000,17.7701611328125,-5.308302879333496,-0.7411670684814453,1.0735912322998047
1770950703858128600,17.789128662109373,-6.192593097686768,3.973696231842041,1.2992327213287354
1770950703877096200,17.80809619140625,-8.39914321899414,1.8635520935058594,1.3713254928588867
1770950703896063700,17.827063720703126,-5.470350742340088,-2.2267589569091797,0.9526503086090088
1770950703915031300,17.84603125,4.757598876953125,-3.7745704650878906,-1.2898104190826416
1770950703933998800,17.864998779296876,9.906554222106934,-2.6001434326171875,-4.01054048538208
1770950703952966100,17.883966064453126,-0.05461984872817993,0.840179443359375,-1.6791696548461914
1770950703971933700,17.90293359375,-0.6312751770019531,2.8308682441711426,-0.9349286556243896
1770950703990901200,17.9219013671875,3.7501466274261475,4.373648643493652,-0.7348537445068359
1770950704009868800,17.940868896484375,4.4121856689453125,4.796350955963135,-0.37900328636169434
1770950704028836400,17.95983642578125,0.22125738859176636,3.729814052581787,-0.9738187789916992
1770950704047804000,17.978803955078124,-1.5601603984832764,3.749788761138916,-1.305509328842163
1770950704066771500,17.997771484375,1.177876353263855,2.5920701026916504,-2.8871030807495117
1770950704085738800,18.01673876953125,4.0338134765625,0.17861461639404297,-3.300931453704834
1770950704104706300,18.035706298828124,1.451923131942749,1.0957279205322266,-1.6227203607559204
1770950704123673900,18.054673828125,-0.6884194612503052,2.3147425651550293,-1.340474009513855
1770950704142641400,18.073641357421874,2.2359390258789062,0.9402570724487305,-1.8184280395507812
1770950704161609000,18.09260888671875,5.815217018127441,-1.2017955780029297,-2.0039029121398926
1770950704180576500,18.111576416015627,3.7869529724121094,-3.773787498474121,-2.5193328857421875
1770950704199544000,18.1305439453125,4.364231586456299,-6.553933143615723,-1.697843313217163
1770950704218511400,18.149511474609376,5.206985950469971,-9.380285263061523,-0.3169741630554199
1770950704237479000,18.16847900390625,-1.2832469940185547,-9.883659362792969,2.118220090866089
1770950704256446500,18.187446533203126,-3.2388548851013184,-9.160128593444824,4.258708953857422
1770950704275414000,18.2064140625,-6.251980781555176,-8.092422485351562,7.018953323364258
1770950704294381600,18.225381591796875,-4.812355041503906,-6.043957710266113,2.601290702819824
1770950704313349000,18.24434912109375,-4.12502384185791,0.21126747131347656,2.3533427715301514
1770950704332316400,18.26331640625,-1.7384791374206543,3.730865478515625,2.7354886531829834
1770950704351284000,18.282283935546875,-2.4980390071868896,3.6810922622680664,2.9992847442626953
1770950704370251500,18.30125146484375,-3.550915241241455,3.024044990539551,2.1160531044006348
1770950704389219000,18.320218994140625,-4.266434192657471,4.236130714416504,1.4521803855895996
1770950704408186600,18.3391865234375,-4.339566707611084,6.036316394805908,0.813835859298706
1770950704427154200,18.358154296875,-3.990433931350708,7.646353721618652,1.5235809087753296
1770950704446121500,18.37712158203125,-3.5937442779541016,7.978142261505127,1.7834508419036865
1770950704465089000,18.396089111328124,-2.964111328125,7.499364852905273,1.3028203248977661
1770950704484056600,18.415056640625,-2.067450523376465,6.629092216491699,0.7669837474822998
1770950704503024000,18.434024169921877,-1.9834331274032593,6.159121513366699,0.10050606727600098
1770950704521991700,18.45299169921875,-2.2638955116271973,4.180904388427734,-1.3350942134857178
1770950704540959200,18.471959228515626,-2.790564775466919,-2.970707893371582,-3.4367077350616455
1770950704559926500,18.490926513671877,-1.7784758806228638,-7.786159515380859,-1.6023794412612915
1770950704578894000,18.50989404296875,2.864041805267334,-5.628584861755371,-1.487015724182129
1770950704597861600,18.528861572265626,8.157088279724121,-1.8831415176391602,-1.1935393810272217
1770950704616829200,18.5478291015625,7.724925994873047,1.0820283889770508,-1.8349545001983643
1770950704635796700,18.566796630859375,8.466487884521484,1.2209467887878418,0.07757425308227539
1770950704654764000,18.585763916015626,5.601291656494141,-1.6805973052978516,3.3965790271759033
1770950704673731600,18.604731689453125,-5.803414344787598,-2.4910459518432617,4.12410831451416
1770950704692699100,18.62369921875,-9.164419174194336,-1.9944038391113281,5.054045677185059
1770950704711666700,18.642666748046874,-3.9962480068206787,0.9658317565917969,0.6689634323120117
1770950704730634000,18.661634033203125,-4.452011585235596,-3.492161750793457,1.5183265209197998
1770950704749601500,18.6806015625,40.243408203125,-30.357486724853516,-6.780492782592773
1770950704768569000,18.699569091796874,-11.949240684509277,-3.2523393630981445,1.014991283416748
1770950704787536600,18.71853662109375,-8.308584213256836,3.030729293823242,0.5094738006591797
1770950704806504200,18.737504150390624,-7.618902683258057,2.1450843811035156,2.3941304683685303
1770950704825471500,18.756471435546874,-5.599145889282227,-0.4483194351196289,4.324319839477539
1770950704844439000,18.77543896484375,2.031186103820801,-3.410764694213867,1.271334171295166
1770950704863406600,18.794406494140624,4.782051086425781,-2.7389841079711914,-1.779484510421753
1770950704882374100,18.8133740234375,1.9319734573364258,-1.735610008239746,-1.774042010307312
1770950704901341400,18.832341552734373,1.2404555082321167,0.886962890625,-1.1999328136444092
1770950704920309000,18.85130908203125,1.1457716226577759,3.72296142578125,-0.3122711181640625
1770950704939276500,18.870276611328126,1.2555112838745117,4.772725582122803,0.6376819610595703
1770950704958244000,18.889244140625,1.247619867324829,4.136142730712891,-0.2274494171142578
1770950704977211600,18.908211669921876,1.5255589485168457,3.193624496459961,-1.9633041620254517
1770950704996179000,18.927178955078126,1.4783308506011963,3.073192596435547,-3.5489799976348877
1770950705015146500,18.946146484375,1.4828743934631348,2.469470500946045,-3.1830358505249023
1770950705034114000,18.965114013671876,1.7390046119689941,1.5911431312561035,-2.49761700630188
1770950705053081600,18.98408154296875,0.6651729345321655,1.8082962036132812,-1.767379641532898
1770950705072049000,19.003048828125,0.6904270648956299,2.735931396484375,-2.146496295928955
1770950705091016400,19.022016357421876,0.3983428478240967,3.0537109375,-1.5029453039169312
1770950705109984000,19.04098388671875,-0.8211893439292908,1.9081001281738281,-2.1195740699768066
1770950705128951600,19.05995166015625,-0.04537069797515869,-0.3920269012451172,-3.135822296142578
1770950705147918800,19.0789189453125,1.332453727722168,-3.108163833618164,-4.432513236999512
1770950705166886400,19.097886474609375,4.186573028564453,-5.714658737182617,-3.290220022201538
1770950705185854000,19.11685400390625,5.275703430175781,-8.422833442687988,-1.4114010334014893
1770950705204821500,19.135821533203124,4.098310947418213,-10.959314346313477,1.0643136501312256
1770950705223788800,19.154788818359375,-0.49127626419067383,-10.757037162780762,5.241009712219238
1770950705242756400,19.17375634765625,-1.419524908065796,-10.227988243103027,8.488652229309082
1770950705261724000,19.192723876953124,-1.260277271270752,-6.475957870483398,7.763548374176025
1770950705280691500,19.21169140625,-2.225452184677124,-0.05059528350830078,5.668341636657715
1770950705299658800,19.23065869140625,-2.62705397605896,4.169917583465576,4.100375175476074
1770950705318626300,19.249626220703124,-1.073326826095581,4.607184410095215,3.1555533409118652
1770950705337593900,19.26859375,-1.6183032989501953,2.4689931869506836,2.757434368133545
1770950705356561400,19.2875615234375,-3.267733573913574,1.4570884704589844,1.8419700860977173
1770950705375528700,19.30652880859375,-3.031562089920044,3.1652350425720215,1.485693335533142
1770950705394496300,19.325496337890623,-3.348144769668579,5.3051252365112305,1.7667591571807861
1770950705413463800,19.3444638671875,-2.9278180599212646,5.925377368927002,1.3783035278320312
1770950705432431400,19.363431396484376,-2.669752359390259,5.0778584480285645,0.7268619537353516
1770950705451398700,19.382398681640623,-1.883514404296875,4.113784313201904,-0.13009333610534668
1770950705470366200,19.4013662109375,-1.465773344039917,3.4755125045776367,-1.2282768487930298
1770950705489333800,19.420333740234376,-1.8953988552093506,3.731227397918701,-1.83280611038208
1770950705508301000,19.439301025390623,-3.0652217864990234,4.274858474731445,-2.0232462882995605
1770950705527268600,19.4582685546875,-3.734222650527954,3.908212661743164,-2.7648110389709473
1770950705546236200,19.477236083984376,-2.9016973972320557,2.344845771789551,-2.8959484100341797
1770950705565203700,19.49620361328125,-1.8805781602859497,-1.2574615478515625,-3.3875362873077393
1770950705584171000,19.5151708984375,-0.34656739234924316,-2.3126020431518555,-2.174124240875244
1770950705603138600,19.534138671875,0.997352123260498,-0.13363933563232422,-0.8684854507446289
1770950705622106000,19.553106201171875,3.5197129249572754,0.09894847869873047,0.2654409408569336
1770950705641073400,19.572073486328126,7.093179702758789,0.09784126281738281,1.566549301147461
1770950705660041000,19.591041015625,9.631804466247559,1.3635063171386719,1.817014217376709
1770950705679008500,19.610008544921875,8.163328170776367,1.8583102226257324,1.7803599834442139
1770950705697975800,19.628975830078126,4.105830669403076,-0.8689746856689453,2.5452117919921875
1770950705716943400,19.647943359375,-5.581121444702148,-3.253816604614258,1.96409010887146
1770950705735911000,19.666910888671875,-9.420287132263184,-4.042393684387207,5.356142044067383
1770950705754878200,19.685878173828126,-4.636679172515869,-0.3911628723144531,4.420249938964844
1770950705773845800,19.704845703125,-3.638479471206665,-1.701125144958496,-0.9293956756591797
1770950705792813300,19.723813232421875,27.392335891723633,-22.051727294921875,-1.991882562637329
1770950705811780600,19.742780517578126,-7.479680061340332,-7.140552520751953,1.6533305644989014
1770950705830748200,19.761748046875,-6.859569072723389,0.3254070281982422,0.68654465675354
1770950705849715700,19.7807158203125,-4.863670825958252,-0.2284536361694336,1.4072277545928955
1770950705868683000,19.79968310546875,-3.204422950744629,-3.238239288330078,1.581756353378296
1770950705887650600,19.818650634765625,-1.4619089365005493,-3.214297294616699,0.3368070125579834
1770950705906618000,19.8376181640625,-0.25972437858581543,-0.841090202331543,-0.9190261363983154
1770950705925585400,19.85658544921875,0.9520455598831177,0.5310430526733398,-1.4694645404815674
1770950705944553000,19.875552978515625,1.3367599248886108,0.7103672027587891,-0.8308720588684082
1770950705963520300,19.894520263671875,1.7088959217071533,0.7732610702514648,-0.4753127098083496
1770950705982487800,19.91348779296875,2.112050771713257,1.895012378692627,-0.35781216621398926
1770950706001455400,19.932455322265625,1.8430126905441284,2.730597496032715,-0.25086116790771484
1770950706020422700,19.951422607421875,1.508968710899353,2.8216261863708496,-0.8605549335479736
1770950706039390000,19.970389892578126,1.3908387422561646,1.9245600700378418,-1.6406652927398682
1770950706058357500,19.989357421875,1.4210364818572998,0.7368335723876953,-2.1103007793426514
1770950706077325000,20.008324951171875,2.1638221740722656,-0.24429035186767578,-2.1181857585906982
1770950706096292600,20.027292724609374,3.3674087524414062,-0.1692819595336914,-2.445810079574585
1770950706115260000,20.046260009765625,3.170989751815796,0.9213895797729492,-2.6561455726623535
1770950706134227500,20.0652275390625,0.3504325747489929,2.4715075492858887,-1.6895889043807983
1770950706153195000,20.084195068359374,-1.7194242477416992,3.2462306022644043,-1.4925676584243774
1770950706172162300,20.103162353515625,-2.6376259326934814,3.221851348876953,-1.2355167865753174
1770950706191129900,20.1221298828125,-2.6502299308776855,2.3400535583496094,-2.1475579738616943
1770950706210097200,20.14109716796875,-1.4387472867965698,1.0874824523925781,-3.8985228538513184
1770950706229064700,20.160064697265625,-0.30265510082244873,1.6854958534240723,-4.182063579559326
1770950706248032300,20.1790322265625,0.22924983501434326,1.85933256149292,-3.159750461578369
1770950706266999600,20.19799951171875,0.9443202018737793,0.21199703216552734,-1.2324559688568115
1770950706285967000,20.216967041015625,4.233631134033203,-2.3958520889282227,0.09863114356994629
1770950706304934700,20.2359345703125,8.546967506408691,-5.178725242614746,0.4545555114746094
1770950706323902000,20.25490185546875,7.145014762878418,-7.452075004577637,1.8092560768127441
1770950706342869500,20.273869384765625,3.547492265701294,-9.851278305053711,1.3553194999694824
1770950706361837000,20.292837158203124,-1.3510324954986572,-9.885209083557129,3.0997300148010254
1770950706380804400,20.311804443359375,-2.8560075759887695,-7.90688419342041,4.873708724975586
1770950706399772000,20.33077197265625,-4.493680953979492,-6.423770904541016,6.351572036743164
1770950706418739200,20.3497392578125,-3.773409366607666,-4.631734848022461,4.583195686340332
1770950706437706800,20.368706787109375,-3.3399906158447266,-1.9542627334594727,1.8809106349945068
1770950706456674300,20.38767431640625,-1.5207440853118896,-0.13932418823242188,1.3556060791015625
1770950706475641600,20.4066416015625,-1.2185521125793457,0.4134836196899414,0.417705774307251
1770950706494609200,20.425609130859375,-2.74819016456604,0.8652715682983398,-0.25284433364868164
1770950706513576400,20.444576416015625,-4.0410685539245605,2.379404067993164,0.1091301441192627
1770950706532544000,20.4635439453125,-3.670802593231201,4.895541191101074,1.50363290309906
1770950706551511600,20.482511474609375,-3.3782129287719727,7.109493255615234,2.9219393730163574
1770950706570478800,20.501478759765625,-3.028733491897583,7.289607048034668,2.5389323234558105
1770950706589446400,20.5204462890625,-2.114037036895752,6.09759521484375,1.1583504676818848
1770950706608413700,20.53941357421875,-1.8136308193206787,5.143815994262695,0.2953321933746338
1770950706627381200,20.55838134765625,-1.977304458618164,4.741457939147949,-0.299599289894104
1770950706646348800,20.577348876953124,-2.0094144344329834,5.297346115112305,0.12466239929199219
1770950706665316000,20.596316162109375,-2.3328166007995605,5.332274436950684,0.15067625045776367
1770950706684283600,20.61528369140625,-1.7747958898544312,4.106810092926025,-0.4234805107116699
1770950706703251000,20.6342509765625,-1.8449996709823608,2.300154209136963,-1.051519513130188
1770950706722218500,20.653218505859375,-1.305819034576416,-0.0973663330078125,-2.2913670539855957
1770950706741185800,20.672185791015625,-0.32285189628601074,-2.54034423828125,-2.7716119289398193
1770950706760153300,20.6911533203125,0.08796930313110352,-3.152766227722168,-2.602832078933716
1770950706779121000,20.710120849609375,0.8112020492553711,-0.004985809326171875,-2.168421506881714
1770950706798088200,20.729088134765625,1.3360595703125,1.5471768379211426,-0.98716139793396
1770950706817055700,20.7480556640625,2.745518207550049,0.9717917442321777,0.3457939624786377
1770950706836023000,20.76702294921875,5.390120983123779,1.6093969345092773,1.5357396602630615
1770950706854990600,20.785990478515625,5.2543745040893555,0.8752851486206055,1.2001712322235107
1770950706873958000,20.8049580078125,4.95915412902832,-2.778942108154297,2.90382981300354
1770950706892925400,20.823925537109375,3.2612109184265137,-8.193214416503906,4.835197448730469
1770950706911893000,20.84289306640625,-4.958806991577148,-4.7034406661987305,4.96549129486084
1770950706930860300,20.8618603515625,-5.140700340270996,0.29654598236083984,0.7148532867431641
1770950706949827800,20.880827880859375,4.061192512512207,0.9049167633056641,1.101325511932373
1770950706968795100,20.899795166015625,-0.05451834201812744,-5.282526016235352,1.0408539772033691
1770950706987762700,20.9187626953125,4.156577110290527,-15.623905181884766,-5.325741291046143
1770950707006730000,20.93772998046875,-6.168997764587402,-4.902419090270996,-2.990454912185669
1770950707025697500,20.956697509765625,-5.563244342803955,0.18375587463378906,0.6747996807098389
1770950707044665000,20.9756650390625,-4.4385223388671875,-0.17197895050048828,3.591949701309204
1770950707063632400,20.99463232421875,-2.102494716644287,-2.1792726516723633,4.253851890563965
1770950707082600000,21.013599853515625,0.35467660427093506,-1.8598966598510742,2.759665012359619
1770950707101567200,21.032567138671876,1.25633704662323,-1.147873878479004,0.8111453056335449
1770950707120534800,21.05153466796875,1.0040459632873535,-0.2555084228515625,-0.38491225242614746
1770950707139502000,21.070502197265625,0.7672519683837891,1.0780229568481445,-1.2302136421203613
1770950707158469600,21.0894697265625,0.7052649855613708,2.1915273666381836,-1.3100441694259644
1770950707177437000,21.10843701171875,0.7962552309036255,2.375885009765625,-1.3437983989715576
1770950707196404500,21.127404541015625,0.8827697038650513,1.737290382385254,-1.5602951049804688
1770950707215371800,21.146371826171876,0.7751473188400269,1.1179189682006836,-1.7143099308013916
1770950707234339300,21.16533935546875,0.8542826175689697,0.8666257858276367,-1.5674291849136353
1770950707253306600,21.184306640625,1.700350284576416,1.097121238708496,-1.2090868949890137
1770950707272274200,21.203274169921876,3.4203245639801025,1.5074920654296875,-1.3367269039154053
1770950707291241500,21.222241455078127,4.719679832458496,0.9778976440429688,-1.1127946376800537
1770950707310209000,21.241208984375,2.064666748046875,0.3105134963989258,-0.33695101737976074
1770950707329176300,21.26017626953125,-0.7415758371353149,0.47228336334228516,-0.5633378028869629
1770950707348143900,21.279143798828127,-1.6346473693847656,1.1911816596984863,-2.039809226989746
1770950707367111200,21.298111083984374,-1.4561219215393066,1.6847314834594727,-3.3545897006988525
1770950707386078700,21.31707861328125,-1.0753154754638672,1.6489415168762207,-3.8415324687957764
1770950707405046000,21.3360458984375,-0.07611429691314697,0.8502836227416992,-3.8832907676696777
1770950707424013600,21.355013671875,-0.020419657230377197,0.457366943359375,-2.821157455444336
1770950707442980900,21.37398095703125,0.26119446754455566,0.5061979293823242,-1.7901411056518555
1770950707461948400,21.392948486328127,2.2007243633270264,1.1972508430480957,-1.0203025341033936
1770950707480916000,21.411916015625,3.1545965671539307,1.9052362442016602,-0.6118369102478027
1770950707499883300,21.43088330078125,2.936978816986084,0.9812850952148438,-0.11927366256713867
1770950707518850800,21.449850830078127,2.097702980041504,-0.7494354248046875,0.07420206069946289
1770950707537818000,21.468818115234374,3.499725818634033,-4.181159973144531,-0.007472038269042969
1770950707556785700,21.48778564453125,3.0469655990600586,-6.868860244750977,0.17332768440246582
1770950707575753000,21.5067529296875,3.2566003799438477,-7.834165573120117,1.2281641960144043
1770950707594720300,21.52572021484375,1.782792329788208,-8.039006233215332,2.4909865856170654
1770950707613687800,21.544687744140624,-2.4181947708129883,-7.830143928527832,4.16348123550415
1770950707632655400,21.5636552734375,-4.326721668243408,-6.932482719421387,5.013753414154053
1770950707651622700,21.58262255859375,-2.7741587162017822,-4.291285514831543,4.679628849029541
1770950707670590000,21.60158984375,-2.058454751968384,-2.0199851989746094,3.6501293182373047
1770950707689557500,21.6205576171875,-2.8992834091186523,-0.5467500686645508,1.7217297554016113
1770950707708524800,21.63952490234375,-2.1801207065582275,0.3709716796875,0.592519998550415
1770950707727492400,21.658492431640624,-2.0482726097106934,0.9441046714782715,0.16428375244140625
1770950707746459600,21.677459716796875,-3.4009616374969482,1.0933990478515625,0.3661597967147827
1770950707765427200,21.69642724609375,-4.115413665771484,2.4789295196533203,0.8727362155914307
1770950707784394500,21.71539453125,-3.7416434288024902,4.2903971672058105,0.9991204738616943
1770950707803362000,21.734362060546875,-3.2364342212677,5.593506336212158,0.8661521673202515
1770950707822329300,21.753329345703126,-2.577958106994629,5.420879364013672,0.5658015012741089
1770950707841297000,21.772296875,-2.978806972503662,5.482694625854492,1.1406300067901611
1770950707860264200,21.79126416015625,-3.007594347000122,6.261542320251465,0.5982224941253662
1770950707879231700,21.810231689453126,-2.1419661045074463,6.415333271026611,0.7905049324035645
1770950707898199000,21.829198974609376,-2.0657544136047363,5.635200500488281,1.5858123302459717
1770950707917166600,21.84816650390625,-1.5992000102996826,3.651092529296875,1.5279381275177002
1770950707936134000,21.8671337890625,-1.5142910480499268,1.7517633438110352,0.872572660446167
1770950707955101200,21.88610107421875,-1.1826276779174805,-0.19272327423095703,-0.4374237060546875
1770950707974068700,21.90506884765625,0.09922266006469727,-3.720473289489746,-2.358201026916504
1770950707993036000,21.9240361328125,1.5776193141937256,-3.716435432434082,-3.3118209838867188
1770950708012003600,21.943003662109376,0.9010217189788818,0.1620330810546875,-3.2852063179016113
1770950708030971000,21.961970947265623,-0.10922527313232422,0.9726791381835938,-2.5010337829589844
1770950708049938400,21.9809384765625,0.24272966384887695,0.6766529083251953,-1.3230934143066406
1770950708068905700,21.99990576171875,1.2036869525909424,1.1395649909973145,-0.12347078323364258
1770950708087873000,22.018873046875,4.316108703613281,1.3136625289916992,1.5553386211395264
1770950708106840600,22.037840576171874,6.249063491821289,1.4880704879760742,2.007171392440796
1770950708125807900,22.056807861328124,4.375766277313232,1.3402776718139648,-0.21271967887878418
1770950708144775400,22.075775390625,1.675020694732666,0.09641551971435547,-0.6878523826599121
1770950708163742700,22.09474267578125,0.6212649345397949,-2.5157623291015625,0.9496896266937256
1770950708182710300,22.113710205078124,-0.21828269958496094,-6.61351203918457,4.148097991943359
1770950708201677600,22.132677490234375,-3.708209276199341,-4.238142967224121,4.770286560058594
1770950708220645000,22.15164501953125,-1.39723539352417,1.5585722923278809,-0.5571560859680176
1770950708239612400,22.1706123046875,-3.7274436950683594,1.8677287101745605,-4.026503086090088
1770950708258579700,22.189579833984375,-3.335294246673584,-10.997468948364258,-1.8839972019195557
1770950708277547300,22.20854736328125,12.846412658691406,-19.15236473083496,-2.7061166763305664
1770950708296514600,22.2275146484375,-0.3887084126472473,-4.612518310546875,1.203117847442627
1770950708315482000,22.246482177734375,-5.226651668548584,1.3462467193603516,3.0064094066619873
1770950708334449400,22.265449462890626,-4.257775783538818,1.7142610549926758,2.190274715423584
1770950708353417000,22.2844169921875,-3.7944204807281494,-0.6574020385742188,3.0613150596618652
1770950708372384300,22.30338427734375,-1.7788535356521606,-1.5139122009277344,2.0832912921905518
1770950708391351600,22.3223515625,0.0687098503112793,-0.6795415878295898,0.6529309749603271
1770950708410319000,22.341319091796876,0.36161673069000244,1.0381088256835938,-1.1007769107818604
1770950708429286400,22.360286376953123,0.41791266202926636,1.9154925346374512,-2.0372421741485596
1770950708448254000,22.37925390625,0.8055725693702698,2.5267677307128906,-0.9000215530395508
1770950708467221200,22.39822119140625,1.2543810606002808,2.7096409797668457,0.6803839206695557
1770950708486188500,22.4171884765625,1.936991810798645,2.451876163482666,0.8583643436431885
1770950708505156000,22.436156005859374,2.079498291015625,1.0614566802978516,-0.680283784866333
1770950708524123400,22.455123291015624,1.9095385074615479,0.03316497802734375,-1.6054103374481201
1770950708543090700,22.474090576171875,1.6821213960647583,0.3490314483642578,-2.667448043823242
1770950708562058200,22.493058349609374,1.612656831741333,1.1673197746276855,-3.647571325302124
1770950708581025500,22.512025634765624,2.59403133392334,-0.2775697708129883,-3.8372650146484375
1770950708599993000,22.5309931640625,2.786818265914917,-0.9774837493896484,-2.3993844985961914
1770950708618960400,22.54996044921875,1.9855740070343018,0.08494949340820312,-2.138601303100586
1770950708637927700,22.568927734375,0.842778205871582,2.08970308303833,-2.3366217613220215
1770950708656895200,22.587895263671875,0.19430440664291382,3.3513479232788086,-2.712801456451416
1770950708675862500,22.606862548828126,-0.7537155151367188,3.558621406555176,-2.2464687824249268
1770950708694830000,22.625830078125,-1.584313988685608,1.666222095489502,-1.703786015510559
1770950708713797400,22.64479736328125,-1.4126217365264893,0.20062541961669922,-1.4984092712402344
1770950708732764700,22.6637646484375,0.534696638584137,-0.20026302337646484,-2.3776068687438965
1770950708751732200,22.682732177734376,0.7424312829971313,1.6134672164916992,-2.710610866546631
1770950708770699500,22.701699462890623,1.8147016763687134,1.4992709159851074,-2.154975414276123
1770950708789667000,22.7206669921875,4.329458236694336,0.014215469360351562,-1.3478279113769531
1770950708808634400,22.73963427734375,6.60030460357666,-2.7859764099121094,-0.5574278831481934
1770950708827601700,22.7586015625,4.703240871429443,-6.573737144470215,-0.39975500106811523
1770950708846569200,22.7775693359375,3.3764114379882812,-9.129744529724121,1.2009742259979248
1770950708865536500,22.79653662109375,1.4719417095184326,-10.41828727722168,2.8138298988342285
1770950708884503800,22.81550390625,-1.9976407289505005,-9.762356758117676,6.893877029418945
1770950708903471400,22.834471435546874,-4.377108573913574,-8.326991081237793,9.171460151672363
1770950708922438700,22.853438720703124,-1.6465277671813965,-6.878098487854004,5.534829616546631
1770950708941406000,22.872406005859375,-2.2298076152801514,-3.7404565811157227,2.146440029144287
1770950708960373500,22.89137353515625,-2.349949598312378,-0.19662761688232422,1.749827265739441
1770950708979340800,22.9103408203125,-1.7249257564544678,2.8469247817993164,1.0112712383270264
1770950708998308000,22.92930810546875,-2.370394468307495,2.796595573425293,-0.038205862045288086
1770950709017275600,22.948275634765626,-3.3660621643066406,2.271998882293701,0.6110877990722656
1770950709036243000,22.967242919921876,-4.234903335571289,3.3969831466674805,1.8505579233169556
1770950709055210500,22.98621044921875,-4.2516632080078125,5.889395713806152,2.801612377166748
1770950709074177800,23.005177734375,-3.760117530822754,7.609368801116943,2.7793631553649902
1770950709093145000,23.02414501953125,-2.941567897796631,7.84086799621582,2.0653228759765625
1770950709112112600,23.043112548828127,-2.3583266735076904,6.603750705718994,0.8862673044204712
1770950709131080000,23.062079833984374,-1.9839890003204346,5.807348728179932,0.5414655208587646
1770950709150047200,23.081047119140624,-1.7730696201324463,4.727404594421387,0.34541916847229004
1770950709169014800,23.100014892578123,-1.9399821758270264,3.503091812133789,0.535973310470581
1770950709187982000,23.118982177734374,-2.3537886142730713,2.595907688140869,0.8024611473083496
1770950709206949400,23.137949462890624,-2.7863028049468994,1.4900197982788086,-0.17989659309387207
1770950709225916700,23.156916748046875,-1.6342144012451172,-1.324819564819336,-2.222151517868042
1770950709244884200,23.17588427734375,-0.008309602737426758,-4.465693473815918,-3.7082858085632324
1770950709263851500,23.1948515625,0.5216119289398193,-2.754251480102539,-2.929804563522339
1770950709282819000,23.213819091796875,0.4207344055175781,0.558903694152832,-1.6100189685821533
1770950709301786400,23.232786376953126,2.4530718326568604,1.3740921020507812,-0.36284375190734863
1770950709320753700,23.251753662109376,5.301123142242432,1.57600736618042,1.1262800693511963
1770950709339721200,23.27072119140625,5.944002151489258,2.0324554443359375,2.2630374431610107
1770950709358688500,23.2896884765625,5.1531267166137695,2.3297271728515625,2.8241472244262695
1770950709377655800,23.30865576171875,3.4319679737091064,0.4266090393066406,2.388073205947876
1770950709396623400,23.327623291015627,1.3912122249603271,-3.6960058212280273,2.3339600563049316
1770950709415590700,23.346590576171874,-1.7820056676864624,-5.982039451599121,3.7407753467559814
1770950709434558000,23.365557861328124,-5.124439239501953,-4.587203025817871,4.2372145652771
1770950709453525200,23.384525146484375,1.8166141510009766,0.4406595230102539,0.7810099124908447
1770950709472492800,23.403492919921874,-3.2726728916168213,1.2012004852294922,-2.3727054595947266
1770950709491460000,23.422460205078124,-7.468242645263672,-8.553317070007324,-0.2659938335418701
1770950709510427400,23.441427490234375,2.397616386413574,-15.390130996704102,-2.0167453289031982
1770950709529395000,23.46039501953125,9.64242935180664,-5.34781551361084,-2.0534605979919434
1770950709548362200,23.4793623046875,-5.767238616943359,-1.1904544830322266,2.124562978744507
1770950709567329500,23.49832958984375,-4.335453987121582,0.49297046661376953,2.128303050994873
1770950709586296800,23.517296875,-4.248819351196289,0.8964061737060547,1.331970453262329
1770950709605264400,23.536264404296876,-2.8758628368377686,0.07449626922607422,0.6054811477661133
1770950709624231700,23.555231689453127,-0.5024627447128296,-0.8797855377197266,0.30092453956604004
1770950709643199000,23.574198974609374,1.7219929695129395,-0.10810375213623047,-1.205782413482666
1770950709662166500,23.59316650390625,2.0202856063842773,1.0245962142944336,-1.9622122049331665
1770950709681133800,23.6121337890625,0.9754796028137207,1.8242440223693848,-1.6399648189544678
1770950709700101000,23.63110107421875,0.4796733558177948,2.377631187438965,-0.5898580551147461
1770950709719068700,23.650068603515624,1.015239953994751,2.7297496795654297,-0.11660027503967285
1770950709738036000,23.669035888671875,1.5129225254058838,2.1022214889526367,-0.6886637210845947
1770950709757003300,23.688003173828125,0.717077374458313,1.3560843467712402,-1.152198076248169
1770950709775970600,23.706970458984376,0.37623023986816406,1.0242156982421875,-1.9030729532241821
1770950709794938000,23.725938232421875,0.9063819646835327,0.28061485290527344,-2.538146495819092
1770950709813905400,23.744905517578125,2.777196168899536,-0.7440195083618164,-3.0445396900177
1770950709832872700,23.763872802734376,4.3575825691223145,-0.44023799896240234,-3.427186965942383
1770950709851840300,23.78284033203125,2.40877628326416,1.9671039581298828,-2.256864070892334
1770950709870807600,23.8018076171875,0.397735059261322,2.656169891357422,-2.2801504135131836
1770950709889774800,23.82077490234375,-0.022398948669433594,2.212484836578369,-1.5242350101470947
1770950709908742100,23.8397421875,-0.022311121225357056,0.8450384140014648,-1.2826273441314697
1770950709927709700,23.858709716796874,0.1698622703552246,0.21839427947998047,-1.9870436191558838
1770950709946677000,23.877677001953124,0.9150364995002747,0.6929407119750977,-2.5842137336730957
1770950709965644300,23.896644287109375,1.4657797813415527,1.1709566116333008,-2.162827968597412
1770950709984611600,23.915611572265625,2.244442939758301,1.165740966796875,-0.882354736328125
1770950710003579100,23.9345791015625,5.138865947723389,-1.1009588241577148,-0.8705682754516602
1770950710022546400,23.95354638671875,8.13971996307373,-3.925593376159668,-1.863096833229065
1770950710041513700,23.972513671875,4.774759292602539,-6.547755241394043,-1.4416377544403076
1770950710060481000,23.99148095703125,2.158867359161377,-8.029576301574707,0.8276581764221191
1770950710079448600,24.010448486328126,-1.3196622133255005,-8.999711036682129,0.7097344398498535
1770950710098415900,24.029415771484373,-3.7942283153533936,-8.512825012207031,4.019081115722656
1770950710117383200,24.048383056640624,-4.993783950805664,-7.655496597290039,6.680998802185059
1770950710136350700,24.067350830078126,-1.93721342086792,-6.9783220291137695,6.364493370056152
1770950710155318000,24.086318115234373,-1.9206042289733887,-4.814228057861328,3.651808738708496
1770950710174285300,24.105285400390624,-2.617023229598999,-0.00212860107421875,2.9394936561584473
1770950710193252600,24.124252685546875,-2.1481945514678955,3.3800454139709473,0.8749275207519531
