time,seconds_elapsed,z,y,x
1770950686173473000,0.10447314453125,8.869857788085938,4.1787495613098145,0.1845591515302658
1770950686192440000,0.123440185546875,8.873366355895996,4.169809818267822,0.21551042795181274
1770950686211407000,0.142406982421875,8.873437881469727,4.163609027862549,0.3111966550350189
1770950686230374100,0.1613740234375,8.908171653747559,4.087952136993408,0.3217470049858093
1770950686258824700,0.18982470703125,8.932795524597168,4.045761585235596,0.08579132705926895
1770950686277791700,0.208791748046875,8.896615028381348,4.1253180503845215,-0.048530999571084976
1770950686296758800,0.2277587890625,8.852991104125977,4.215010643005371,-0.1691240519285202
1770950686315725800,0.246725830078125,8.83022689819336,4.256529331207275,-0.28186726570129395
1770950686334692900,0.26569287109375,8.81114387512207,4.286905288696289,-0.39569857716560364
1770950686353660000,0.284659912109375,8.781005859375,4.335504531860352,-0.5174161791801453
1770950686372627000,0.303626953125,8.743494987487793,4.393109321594238,-0.6498205661773682
1770950686391594000,0.322593994140625,8.714635848999023,4.430567741394043,-0.7717328667640686
1770950686410561000,0.34156103515625,8.707318305969238,4.424161911010742,-0.8830524682998657
1770950686429528000,0.360528076171875,8.705676078796387,4.396663665771484,-1.0251479148864746
1770950686448495000,0.3794951171875,8.70606517791748,4.349704742431641,-1.2061837911605835
1770950686467462400,0.39846240234375,8.718873023986816,4.264870643615723,-1.400895118713379
1770950686486429200,0.41742919921875,8.739699363708496,4.162755966186523,-1.5682789087295532
1770950686505396500,0.436396484375,8.761739730834961,4.081118106842041,-1.6573421955108643
1770950686524363500,0.455363525390625,8.77896499633789,4.040611267089844,-1.6654208898544312
1770950686543330300,0.474330322265625,8.780685424804688,4.040612697601318,-1.6563169956207275
1770950686562297600,0.493297607421875,8.77425479888916,4.047815322875977,-1.6727317571640015
1770950686581264600,0.5122646484375,8.787814140319824,4.000053882598877,-1.7158896923065186
1770950686600231700,0.531231689453125,8.835287094116211,3.8527419567108154,-1.8067837953567505
1770950686619198700,0.55019873046875,8.91329574584961,3.627645492553711,-1.8877837657928467
1770950686638165800,0.569165771484375,8.980976104736328,3.436678886413574,-1.9239795207977295
1770950686657132800,0.5881328125,9.002517700195312,3.372934103012085,-1.9360731840133667
1770950686676099800,0.607099853515625,8.989385604858398,3.4308927059173584,-1.8948075771331787
1770950686695067000,0.62606689453125,8.98044204711914,3.5176737308502197,-1.7742687463760376
1770950686714034000,0.645033935546875,9.000431060791016,3.5454652309417725,-1.6100683212280273
1770950686733001000,0.6640009765625,9.042375564575195,3.502755880355835,-1.4616879224777222
1770950686751968000,0.682968017578125,9.092632293701172,3.428680896759033,-1.318555235862732
1770950686770935000,0.70193505859375,9.124065399169922,3.386165142059326,-1.2065213918685913
1770950686789902000,0.720902099609375,9.130354881286621,3.396393299102783,-1.1276180744171143
1770950686808869400,0.739869384765625,9.125173568725586,3.438819408416748,-1.037351131439209
1770950686827836200,0.758836181640625,9.121871948242188,3.5001564025878906,-0.8430503010749817
1770950686846803200,0.77780322265625,9.114297866821289,3.5730326175689697,-0.5774015188217163
1770950686865770500,0.7967705078125,9.098679542541504,3.636650562286377,-0.3989983797073364
1770950686884737300,0.8157373046875,9.092418670654297,3.659421920776367,-0.3270285427570343
1770950686903704600,0.83470458984375,9.111906051635742,3.6175544261932373,-0.23844923079013824
1770950686922671600,0.853671630859375,9.149467468261719,3.5283541679382324,-0.09143804013729095
1770950686941638700,0.872638671875,9.173123359680176,3.4665231704711914,0.08607035875320435
1770950686960605700,0.891605712890625,9.164427757263184,3.4760704040527344,0.3171577751636505
1770950686979572700,0.91057275390625,9.125814437866211,3.5426018238067627,0.5829874277114868
1770950686998539800,0.929539794921875,9.065605163574219,3.6436147689819336,0.8421855568885803
1770950687017506800,0.9485068359375,8.996610641479492,3.7480154037475586,1.0880160331726074
1770950687036473900,0.967473876953125,8.936356544494629,3.8318850994110107,1.276157021522522
1770950687055441000,0.98644091796875,8.907465934753418,3.865217447280884,1.3738762140274048
1770950687074408000,1.005407958984375,8.909293174743652,3.8340954780578613,1.4472707509994507
1770950687093375000,1.024375,8.917539596557617,3.783163547515869,1.5282487869262695
1770950687112342000,1.043342041015625,8.91262435913086,3.7621712684631348,1.606731653213501
1770950687131309000,1.06230908203125,8.892095565795898,3.7700283527374268,1.699384093284607
1770950687150276400,1.0812763671875,8.866408348083496,3.7872421741485596,1.7927578687667847
1770950687169243100,1.1002431640625,8.849207878112793,3.7866640090942383,1.8769863843917847
1770950687188210400,1.11921044921875,8.856016159057617,3.7379748821258545,1.9413689374923706
1770950687207177500,1.138177490234375,8.896498680114746,3.6224398612976074,1.9750005006790161
1770950687226144500,1.15714453125,8.951269149780273,3.4947996139526367,1.9574344158172607
1770950687245111600,1.176111572265625,8.9911527633667,3.4176383018493652,1.9103201627731323
1770950687264078600,1.19507861328125,9.00821590423584,3.3936374187469482,1.8723348379135132
1770950687283045600,1.214045654296875,9.008401870727539,3.3900845050811768,1.8778769969940186
1770950687302012700,1.2330126953125,9.005155563354492,3.3909175395965576,1.8918883800506592
1770950687320979700,1.251979736328125,9.007195472717285,3.3905272483825684,1.8828593492507935
1770950687339946800,1.27094677734375,9.012060165405273,3.403395175933838,1.8357754945755005
1770950687358913800,1.289913818359375,9.011262893676758,3.451277256011963,1.748201847076416
1770950687377880800,1.308880859375,9.004941940307617,3.5242843627929688,1.6312031745910645
1770950687396848000,1.32784814453125,8.994368553161621,3.598182201385498,1.524728775024414
1770950687415815000,1.34681494140625,8.986983299255371,3.656909942626953,1.4253202676773071
1770950687434782200,1.3657822265625,8.9815092086792,3.7060635089874268,1.329653024673462
1770950687453749200,1.384749267578125,8.970662117004395,3.7643771171569824,1.2357451915740967
1770950687472716300,1.40371630859375,8.951980590820312,3.839160442352295,1.1372252702713013
1770950687491683300,1.422683349609375,8.92708969116211,3.9277002811431885,1.0249971151351929
1770950687510650400,1.441650390625,8.89587116241455,4.024726867675781,0.9140164256095886
1770950687529617400,1.460617431640625,8.868955612182617,4.105477809906006,0.8105919361114502
1770950687548584400,1.47958447265625,8.849650382995605,4.165368556976318,0.7097684144973755
1770950687567551500,1.498551513671875,8.837169647216797,4.207705020904541,0.6083241701126099
1770950687586518500,1.5175185546875,8.834699630737305,4.225518226623535,0.5132986903190613
1770950687605485800,1.53648583984375,8.836931228637695,4.231839179992676,0.41300222277641296
1770950687624452600,1.55545263671875,8.833375930786133,4.24595308303833,0.33724015951156616
1770950687643420000,1.574419921875,8.824247360229492,4.268526554107666,0.2876317501068115
1770950687662387000,1.593386962890625,8.813726425170898,4.291895389556885,0.26124560832977295
1770950687681354000,1.61235400390625,8.81655502319336,4.28478479385376,0.28170353174209595
1770950687700321000,1.631321044921875,8.847677230834961,4.216706275939941,0.3292103409767151
1770950687719288000,1.6502880859375,8.90096664428711,4.100347518920898,0.3610321283340454
1770950687738255000,1.669255126953125,8.94687557220459,4.0029296875,0.3168070614337921
1770950687757222100,1.68822216796875,8.963440895080566,3.969468355178833,0.2653741240501404
1770950687776189200,1.707189208984375,8.955963134765625,3.9839658737182617,0.29853594303131104
1770950687795156500,1.726156494140625,8.940939903259277,4.00615930557251,0.4250512719154358
1770950687814123500,1.74512353515625,8.930103302001953,4.008184432983398,0.5983983874320984
1770950687833090600,1.764090576171875,8.92197036743164,4.000377655029297,0.752216637134552
1770950687852057600,1.7830576171875,8.912335395812988,4.001012802124023,0.8558942079544067
1770950687871024600,1.802024658203125,8.897055625915527,4.021141529083252,0.9182619452476501
1770950687889991700,1.82099169921875,8.875993728637695,4.052309513092041,0.9828153848648071
1770950687908958700,1.839958740234375,8.850029945373535,4.091281890869141,1.0529807806015015
1770950687927925800,1.85892578125,8.822844505310059,4.132333755493164,1.1187547445297241
1770950687946892800,1.877892822265625,8.804352760314941,4.156896591186523,1.1721588373184204
1770950687965860000,1.896860107421875,8.794549942016602,4.166084289550781,1.2124475240707397
1770950687984827100,1.9158271484375,8.782316207885742,4.1741623878479,1.2718799114227295
1770950688003794200,1.934794189453125,8.762250900268555,4.187585830688477,1.362892508506775
1770950688022761200,1.95376123046875,8.739058494567871,4.200228691101074,1.4687860012054443
1770950688041728300,1.972728271484375,8.715704917907715,4.212786674499512,1.5682207345962524
1770950688060695300,1.9916953125,8.69299602508545,4.23016357421875,1.6455731391906738
1770950688079662600,2.01066259765625,8.674328804016113,4.249763011932373,1.6929047107696533
1770950688098629600,2.029629638671875,8.666147232055664,4.261940956115723,1.7041574716567993
1770950688117596700,2.0485966796875,8.670973777770996,4.26035737991333,1.6834303140640259
1770950688136563700,2.067563720703125,8.683263778686523,4.2452850341796875,1.6579711437225342
1770950688155530800,2.08653076171875,8.701258659362793,4.216935634613037,1.6358329057693481
1770950688174497800,2.105497802734375,8.727277755737305,4.1736931800842285,1.6078864336013794
1770950688193465000,2.124465087890625,8.758225440979004,4.114060878753662,1.5932284593582153
1770950688212432100,2.14343212890625,8.78869342803955,4.045338153839111,1.6014009714126587
1770950688231399200,2.162399169921875,8.822393417358398,3.966616630554199,1.6129803657531738
1770950688250366200,2.1813662109375,8.87108325958252,3.8557982444763184,1.6146461963653564
1770950688269333200,2.200333251953125,8.937492370605469,3.702589273452759,1.6069985628128052
1770950688288300300,2.21930029296875,9.0067138671875,3.545151472091675,1.5752413272857666
1770950688307267600,2.238267578125,9.049922943115234,3.450702667236328,1.5368599891662598
1770950688326234600,2.257234619140625,9.053995132446289,3.4436724185943604,1.5286266803741455
1770950688345201700,2.27620166015625,9.034839630126953,3.484236240386963,1.549893856048584
1770950688364168700,2.295168701171875,9.016282081604004,3.5242855548858643,1.5673089027404785
1770950688383135700,2.3141357421875,9.013713836669922,3.531925916671753,1.5648810863494873
1770950688402103000,2.33310302734375,9.025864601135254,3.5134360790252686,1.5362051725387573
1770950688421070000,2.352070068359375,9.036421775817871,3.503114938735962,1.4972152709960938
1770950688440037000,2.371037109375,9.03445053100586,3.5256683826446533,1.4555907249450684
1770950688459004200,2.390004150390625,9.021383285522461,3.576021909713745,1.413183569908142
1770950688477971500,2.408971435546875,9.008681297302246,3.6290907859802246,1.3578521013259888
1770950688496938500,2.4279384765625,9.004549980163574,3.666844606399536,1.2816790342330933
1770950688515905500,2.446905517578125,9.007672309875488,3.6907451152801514,1.1876901388168335
1770950688534872600,2.46587255859375,9.010248184204102,3.714021921157837,1.091723084449768
1770950688553839600,2.484839599609375,9.0061616897583,3.749922752380371,0.9987590312957764
1770950688572806700,2.503806640625,8.994750022888184,3.7995970249176025,0.9099065065383911
1770950688591774000,2.52277392578125,8.980829238891602,3.8511252403259277,0.826993465423584
1770950688610741000,2.541740966796875,8.974237442016602,3.884598731994629,0.7371229529380798
1770950688629708000,2.5607080078125,8.977005004882812,3.8969228267669678,0.6306838393211365
1770950688648675300,2.57967529296875,8.983331680297852,3.8991951942443848,0.5161542892456055
1770950688667642400,2.598642333984375,8.982340812683105,3.912770986557007,0.42209577560424805
1770950688686609400,2.617609375,8.970389366149902,3.945885181427002,0.3640091121196747
1770950688705576400,2.636576416015625,8.952116966247559,3.9890847206115723,0.342325896024704
1770950688724543700,2.655543701171875,8.93725872039795,4.023166179656982,0.33156633377075195
1770950688743510800,2.6745107421875,8.937464714050293,4.0231804847717285,0.32576221227645874
1770950688762477800,2.693477783203125,8.960775375366211,3.971830368041992,0.31539711356163025
1770950688781445000,2.712445068359375,9.006577491760254,3.8703200817108154,0.26937350630760193
1770950688800412200,2.731412109375,9.062335968017578,3.7429630756378174,0.18624351918697357
1770950688819379200,2.750379150390625,9.101442337036133,3.651136636734009,0.057747744023799896
1770950688838346200,2.76934619140625,9.107500076293945,3.6356141567230225,-0.07832716405391693
1770950688857313500,2.7883134765625,9.093262672424316,3.669407367706299,-0.1357181817293167
1770950688876280600,2.807280517578125,9.077692031860352,3.709266185760498,-0.08513545244932175
1770950688895247600,2.82624755859375,9.070064544677734,3.7288389205932617,0.00960254855453968
1770950688914215000,2.84521484375,9.075934410095215,3.7137606143951416,0.07610923796892166
1770950688933182000,2.864181884765625,9.093626022338867,3.669572591781616,0.10284387320280075
1770950688952149000,2.88314892578125,9.11448860168457,3.617619276046753,0.09649564325809479
1770950688971116000,2.902115966796875,9.135492324829102,3.564816474914551,0.07241165637969971
1770950688990083300,2.921083251953125,9.158592224121094,3.5056633949279785,0.030155424028635025
1770950689009050400,2.94005029296875,9.186880111694336,3.4309310913085938,-0.018350647762417793
1770950689028017400,2.959017333984375,9.220641136169434,3.338949203491211,-0.0398256778717041
1770950689046984700,2.977984619140625,9.254319190979004,3.2446465492248535,-0.015348196029663086
1770950689065951700,2.99695166015625,9.270622253417969,3.197539806365967,0.04103889688849449
1770950689084918800,3.015918701171875,9.266762733459473,3.2053134441375732,0.15315775573253632
1770950689103885800,3.0348857421875,9.250926971435547,3.2431640625,0.26947221159935
1770950689122853000,3.05385302734375,9.224509239196777,3.3091275691986084,0.3584548532962799
1770950689141820200,3.072820068359375,9.19139289855957,3.3940775394439697,0.41100630164146423
1770950689160787200,3.091787109375,9.157865524291992,3.481245279312134,0.42990294098854065
1770950689179754500,3.11075439453125,9.122664451599121,3.5712594985961914,0.43986058235168457
1770950689198721500,3.129721435546875,9.08201789855957,3.6705477237701416,0.46305006742477417
1770950689217688800,3.148688720703125,9.0382080078125,3.7714316844940186,0.5074297785758972
1770950689236655900,3.16765576171875,9.001423835754395,3.849668264389038,0.5699282884597778
1770950689255623000,3.186622802734375,8.975349426269531,3.897235870361328,0.6519630551338196
1770950689274590200,3.205590087890625,8.959433555603027,3.9198107719421387,0.7307692170143127
1770950689293557200,3.22455712890625,8.959128379821777,3.9117891788482666,0.7760922908782959
1770950689312524300,3.243524169921875,8.97447681427002,3.8764336109161377,0.7761505842208862
1770950689331491600,3.26249169921875,8.998265266418457,3.829080104827881,0.7346811890602112
1770950689350458600,3.281458740234375,9.030649185180664,3.7638487815856934,0.6717192530632019
1770950689369425700,3.30042578125,9.072725296020508,3.6700987815856934,0.6216183304786682
1770950689388393000,3.31939306640625,9.1134672164917,3.5745322704315186,0.5812333822250366
1770950689407360000,3.338360107421875,9.131053924560547,3.5350184440612793,0.5457867980003357
1770950689426327300,3.357327392578125,9.121184349060059,3.563016891479492,0.5284739136695862
1770950689445294300,3.37629443359375,9.095623970031738,3.6268746852874756,0.5346022248268127
1770950689464261400,3.395261474609375,9.070425987243652,3.6870877742767334,0.5505849123001099
1770950689483228400,3.414228515625,9.056649208068848,3.7198407649993896,0.5570165514945984
1770950689502195700,3.43319580078125,9.056413650512695,3.720973014831543,0.5532686114311218
1770950689521163000,3.4521630859375,9.060236930847168,3.7126669883728027,0.5464391112327576
1770950689540130000,3.471130126953125,9.056675910949707,3.722170352935791,0.5407854914665222
1770950689559097000,3.49009716796875,9.046647071838379,3.7472825050354004,0.5351940393447876
1770950689578064400,3.509064453125,9.03438663482666,3.778622627258301,0.52178555727005
1770950689597031400,3.528031494140625,9.020931243896484,3.812798023223877,0.5057280659675598
1770950689615998500,3.54699853515625,9.009686470031738,3.8409228324890137,0.49318715929985046
1770950689634965800,3.5659658203125,8.998475074768066,3.867995500564575,0.4862605035305023
1770950689653932800,3.584932861328125,8.992435455322266,3.8839569091796875,0.4704893231391907
1770950689672900000,3.603900146484375,8.995556831359863,3.88213849067688,0.4234950542449951
1770950689691867100,3.6228671875,9.007438659667969,3.862593650817871,0.34178343415260315
1770950689710834400,3.64183447265625,9.02257251739502,3.8349692821502686,0.2378901243209839
1770950689729801500,3.660801513671875,9.038711547851562,3.8020310401916504,0.1290237009525299
1770950689748768800,3.679768798828125,9.05799674987793,3.758028984069824,0.01737954095005989
1770950689767735800,3.69873583984375,9.082060813903809,3.698002338409424,-0.10649687796831131
1770950689786702800,3.717702880859375,9.110607147216797,3.622025728225708,-0.21940411627292633
1770950689805670100,3.736670166015625,9.147727966308594,3.5229239463806152,-0.28013965487480164
1770950689824637200,3.75563720703125,9.194154739379883,3.3988728523254395,-0.29251134395599365
1770950689843604500,3.7746044921875,9.242977142333984,3.263476848602295,-0.29576581716537476
1770950689862571500,3.793571533203125,9.299281120300293,3.0982258319854736,-0.3078210651874542
1770950689881538800,3.812538818359375,9.368599891662598,2.8775620460510254,-0.3454870283603668
1770950689900505900,3.831505859375,9.450520515441895,2.594064235687256,-0.3590267300605774
1770950689919473000,3.850472900390625,9.539600372314453,2.228665828704834,-0.4465973675251007
1770950689938440200,3.869440185546875,9.63341236114502,1.7507297992706299,-0.5501639246940613
1770950689957407200,3.8884072265625,9.715327262878418,1.2057234048843384,-0.573620080947876
1770950689976374500,3.90737451171875,9.760931968688965,0.6346112489700317,-0.7013384699821472
1770950689995341600,3.926341552734375,9.757702827453613,0.08194932341575623,-0.9751531481742859
1770950690014308900,3.945308837890625,9.703697204589844,-0.38843876123428345,-1.3629971742630005
1770950690033276200,3.964276123046875,9.630972862243652,-0.7371535301208496,-1.6945072412490845
1770950690052243200,3.9832431640625,9.56647777557373,-0.9348331093788147,-1.9439581632614136
1770950690071210200,4.002210205078125,9.517147064208984,-0.989884614944458,-2.1481223106384277
1770950690090177500,4.021177490234375,9.46979808807373,-0.9357722997665405,-2.370159864425659
1770950690109144600,4.04014453125,9.413066864013672,-0.7751293778419495,-2.638885259628296
1770950690128111900,4.05911181640625,9.353384971618652,-0.5047434568405151,-2.9034149646759033
1770950690147079000,4.078078857421875,9.303046226501465,-0.1861608475446701,-3.09662127494812
1770950690166046200,4.097046142578125,9.241292953491211,0.001840552780777216,-3.2816011905670166
1770950690185013200,4.11601318359375,9.148789405822754,0.04353853687644005,-3.531024932861328
1770950690203980500,4.13498046875,9.073867797851562,0.041022978723049164,-3.719358205795288
1770950690222947600,4.153947509765625,9.027481079101562,0.05150538682937622,-3.830449104309082
1770950690241915000,4.172914794921875,8.985227584838867,0.14512160420417786,-3.9261951446533203
1770950690260882000,4.1918818359375,8.875106811523438,0.34254711866378784,-4.157586574554443
1770950690279849200,4.21084912109375,8.657238960266113,0.6329014301300049,-4.563116550445557
1770950690298816300,4.229816162109375,8.505219459533691,0.8146153092384338,-4.813319683074951
1770950690317783600,4.248783447265625,8.44863510131836,0.7087342739105225,-4.928351879119873
1770950690336750800,4.267750732421875,8.39334774017334,0.4067612290382385,-5.055359363555908
1770950690355718000,4.2867177734375,8.29776668548584,0.051081057637929916,-5.226362228393555
1770950690374685000,4.305684814453125,8.182710647583008,-0.34510260820388794,-5.393934726715088
1770950690393652200,4.32465234375,8.059653282165527,-0.7915974259376526,-5.53043794631958
1770950690412619300,4.343619384765625,7.930998802185059,-1.2760828733444214,-5.625056266784668
1770950690431586600,4.362586669921875,7.800954818725586,-1.8694610595703125,-5.640976905822754
1770950690450553600,4.3815537109375,7.668105602264404,-2.5269627571105957,-5.5664167404174805
1770950690495573500,4.426573486328125,7.449042797088623,-3.8580775260925293,-5.079113960266113
1770950690514540800,4.445540771484375,7.1553754806518555,-4.487812042236328,-4.983026027679443
1770950690533507800,4.4645078125,6.724703311920166,-5.146265983581543,-4.94618034362793
1770950690552475100,4.48347509765625,6.333128929138184,-5.684238433837891,-4.873531341552734
1770950690571442200,4.502442138671875,5.993580341339111,-6.06492280960083,-4.843974590301514
1770950690590409500,4.521409423828125,5.601534366607666,-6.3647236824035645,-4.927829742431641
1770950690609376500,4.54037646484375,5.14086389541626,-6.628277778625488,-5.080141544342041
1770950690628343800,4.55934375,4.666471004486084,-6.808494567871094,-5.295172214508057
1770950690647311000,4.57831103515625,4.176985740661621,-6.877312660217285,-5.605867385864258
1770950690666278100,4.597278076171875,3.6663713455200195,-6.865495204925537,-5.965993404388428
1770950690685245200,4.6162451171875,3.1869330406188965,-6.8038458824157715,-6.302501678466797
1770950690704212500,4.63521240234375,2.8087966442108154,-6.6698832511901855,-6.617681980133057
1770950690723179800,4.6541796875,2.491654634475708,-6.498024940490723,-6.909247398376465
1770950690761114000,4.692114013671875,1.7012338638305664,-6.054003715515137,-7.5249738693237305
1770950690780081200,4.7110810546875,1.3563969135284424,-5.823805809020996,-7.772635459899902
1770950690799048400,4.73004833984375,1.078993558883667,-5.581533908843994,-7.990784645080566
1770950690818015700,4.749015625,0.8857860565185547,-5.3439621925354,-8.174829483032227
1770950690836982800,4.767982666015625,0.8462762832641602,-5.090545654296875,-8.339097023010254
1770950690855950000,4.7869501953125,0.9385570287704468,-4.735569953918457,-8.536032676696777
1770950690874917000,4.805917236328125,1.152782917022705,-4.280207633972168,-8.747645378112793
1770950690893884400,4.824884521484375,1.2700893878936768,-3.702274799346924,-8.991686820983887
1770950690912851500,4.8438515625,1.150572419166565,-3.3506669998168945,-9.144375801086426
1770950690931818800,4.86281884765625,0.9437997937202454,-3.217416286468506,-9.215631484985352
1770950690950786000,4.8817861328125,0.875849723815918,-3.1437246799468994,-9.24771785736084
1770950690969753000,4.900753173828125,1.077894926071167,-3.1063337326049805,-9.239006042480469
1770950690988720400,4.919720458984375,1.35970139503479,-2.9949874877929688,-9.238595962524414
1770950691007687400,4.9386875,1.375529170036316,-2.955233573913574,-9.249048233032227
1770950691026654700,4.95765478515625,1.4313699007034302,-3.0601766109466553,-9.20634937286377
1770950691045622000,4.9766220703125,1.3987879753112793,-3.3033597469329834,-9.126970291137695
1770950691064589000,4.995589111328125,1.2836906909942627,-3.651416301727295,-9.01053237915039
1770950691083556400,5.014556396484375,1.1251252889633179,-4.101031303405762,-8.836630821228027
1770950691102523400,5.0335234375,1.0599968433380127,-4.543979644775391,-8.62548828125
1770950691121490700,5.05249072265625,1.1279950141906738,-4.9275312423706055,-8.403419494628906
1770950691140458000,5.0714580078125,1.2434951066970825,-5.276369094848633,-8.172150611877441
1770950691159425000,5.090425048828125,1.3389185667037964,-5.649467945098877,-7.9032392501831055
1770950691178392300,5.109392333984375,1.413539171218872,-6.033690929412842,-7.600451946258545
1770950691197359400,5.128359375,1.5078566074371338,-6.448824405670166,-7.232524871826172
1770950691216326700,5.14732666015625,1.529579520225525,-6.895334720611572,-6.803317546844482
1770950691235294000,5.1662939453125,1.4313908815383911,-7.319962501525879,-6.367075443267822
1770950691254261000,5.185260986328125,1.2337791919708252,-7.662098407745361,-5.995033264160156
1770950691273228300,5.204228271484375,0.8892043232917786,-7.92963171005249,-5.700933933258057
1770950691292195600,5.223195556640625,0.387747585773468,-8.146110534667969,-5.446184158325195
1770950691311162600,5.24216259765625,-0.012414325028657913,-8.328516006469727,-5.177457332611084
1770950691330130000,5.2611298828125,-0.34686926007270813,-8.502203941345215,-4.874690532684326
1770950691349097200,5.28009716796875,-0.5476992726325989,-8.683732032775879,-4.523628234863281
1770950691368064300,5.299064208984375,-0.582410991191864,-8.898903846740723,-4.0793023109436035
1770950691387031600,5.318031494140625,-0.4475530683994293,-9.128756523132324,-3.5546998977661133
1770950691405998800,5.336998779296875,-0.22213095426559448,-9.379566192626953,-2.8539083003997803
1770950691424966000,5.3559658203125,-0.031383056193590164,-9.587963104248047,-2.059216022491455
1770950691443933200,5.37493310546875,-0.23337487876415253,-9.706628799438477,-1.3774142265319824
1770950691462900500,5.393900390625,-0.7136572599411011,-9.74239730834961,-0.8641690015792847
1770950691481867500,5.412867431640625,-1.004030704498291,-9.741106986999512,-0.5226233005523682
1770950691500834800,5.431834716796875,-0.6800540685653687,-9.776535987854004,-0.35672929883003235
1770950691519802000,5.450802001953125,-0.014069780707359314,-9.80029010772705,-0.35286393761634827
1770950691538769200,5.46976904296875,0.3615652918815613,-9.788097381591797,-0.48250606656074524
1770950691557736400,5.488736328125,0.7760643362998962,-9.758853912353516,-0.576950192451477
1770950691576703700,5.507703857421875,1.346614956855774,-9.703356742858887,-0.44930601119995117
1770950691595671000,5.526671142578125,1.8245164155960083,-9.635430335998535,0.0025475635193288326
1770950691614638000,5.54563818359375,2.1912155151367188,-9.541387557983398,0.5752335786819458
1770950691633605400,5.56460546875,2.398668050765991,-9.448493003845215,1.0689984560012817
1770950691652572700,5.58357275390625,2.536280632019043,-9.36963939666748,1.3955382108688354
1770950691671540000,5.6025400390625,2.816328287124634,-9.276679992675781,1.477126955986023
1770950691690507000,5.621507080078125,3.1504712104797363,-9.191201210021973,1.3291840553283691
1770950691709474300,5.640474365234375,3.4198338985443115,-9.118258476257324,1.154332160949707
1770950691728441600,5.659441650390625,3.681446075439453,-9.028668403625488,1.049048662185669
1770950691747408600,5.67840869140625,3.9441423416137695,-8.920979499816895,1.0150139331817627
1770950691766376000,5.6973759765625,4.191713809967041,-8.804981231689453,1.035487413406372
1770950691785343200,5.71634326171875,4.395107746124268,-8.700708389282227,1.0728837251663208
1770950691804310500,5.735310546875,4.502000331878662,-8.638691902160645,1.1293199062347412
1770950691823277800,5.75427783203125,4.459947109222412,-8.649008750915527,1.2140473127365112
1770950691842244900,5.773244873046875,4.265274524688721,-8.729025840759277,1.3348863124847412
1770950691861212200,5.792212158203125,3.9227075576782227,-8.865547180175781,1.478116512298584
1770950691880179500,5.811179443359375,3.4267921447753906,-9.039628982543945,1.646993637084961
1770950691899146800,5.830146728515625,2.846222162246704,-9.19432258605957,1.879851222038269
1770950691918113800,5.84911376953125,2.6604912281036377,-9.198643684387207,2.1159276962280273
1770950691937081000,5.8680810546875,2.8791842460632324,-9.137650489807129,2.0938026905059814
1770950691956048400,5.88704833984375,2.948125123977661,-9.138591766357422,1.9912493228912354
1770950691984499200,5.915499267578125,2.988922357559204,-9.143951416015625,1.9039164781570435
1770950692003466500,5.934466552734375,2.999677896499634,-9.118335723876953,2.0070571899414062
1770950692022433800,5.953433837890625,2.873743772506714,-9.118425369262695,2.183189630508423
1770950692041401000,5.972401123046875,2.7855844497680664,-9.148590087890625,2.1712210178375244
1770950692060368400,5.991368408203125,2.709820032119751,-9.197999954223633,2.0552501678466797
1770950692079335400,6.01033544921875,2.4827511310577393,-9.263165473937988,2.0494182109832764
1770950692098302700,6.029302734375,2.1946849822998047,-9.332633972167969,2.0629286766052246
1770950692117270000,6.04827001953125,1.9693926572799683,-9.370552062988281,2.1176953315734863
1770950692136237300,6.0672373046875,1.8657721281051636,-9.342988967895508,2.3233237266540527
1770950692155204600,6.08620458984375,1.836579442024231,-9.259016036987305,2.6585679054260254
1770950692174172000,6.105171875,1.6836867332458496,-9.152097702026367,3.0943000316619873
1770950692193139200,6.12413916015625,1.227245569229126,-9.047499656677246,3.5786869525909424
1770950692212106200,6.143106201171875,0.5654378533363342,-8.964529991149902,3.935464382171631
1770950692231073500,6.162073486328125,0.11996845155954361,-8.932286262512207,4.046017169952393
1770950692250040800,6.181040771484375,0.04736313968896866,-8.970844268798828,3.9613261222839355
1770950692269008100,6.200008056640625,0.03200359269976616,-9.029267311096191,3.826446533203125
1770950692287975400,6.218975341796875,-0.03256645053625107,-9.073939323425293,3.7192702293395996
1770950692306942700,6.237942626953125,-0.1282796412706375,-9.100481033325195,3.651735782623291
1770950692325910000,6.256909912109375,-0.2918899655342102,-9.106389045715332,3.627516269683838
1770950692354360800,6.28536083984375,-0.6915326118469238,-9.052021026611328,3.7085158824920654
1770950692373328100,6.304328125,-0.9386614561080933,-8.98292064666748,3.8205246925354004
1770950692392295400,6.32329541015625,-1.1003992557525635,-8.908452987670898,3.949554204940796
1770950692411262700,6.3422626953125,-1.2077038288116455,-8.838123321533203,4.07423734664917
1770950692430230000,6.36122998046875,-1.3236838579177856,-8.768282890319824,4.187537670135498
1770950692449197300,6.380197265625,-1.4286012649536133,-8.710114479064941,4.273568630218506
1770950692468164600,6.39916455078125,-1.4595482349395752,-8.675559043884277,4.3329877853393555
1770950692487132000,6.4181318359375,-1.3887697458267212,-8.67690658569336,4.3535027503967285
1770950692506099200,6.43709912109375,-1.2820308208465576,-8.716653823852539,4.306591987609863
1770950692525066500,6.45606640625,-1.2556043863296509,-8.771976470947266,4.200747013092041
1770950692544033800,6.47503369140625,-1.27723228931427,-8.837087631225586,4.055238723754883
1770950692563001000,6.4940009765625,-1.1725130081176758,-8.925374984741211,3.8901517391204834
1770950692581968400,6.512968505859375,-0.8400936722755432,-9.040753364562988,3.7053210735321045
1770950692600935700,6.531935791015625,-0.37312474846839905,-9.144752502441406,3.5220258235931396
1770950692619903000,6.550903076171875,0.2256823629140854,-9.220417022705078,3.3321726322174072
1770950692638870300,6.569870361328125,0.872445821762085,-9.235334396362305,3.1808555126190186
1770950692657837600,6.588837646484375,1.4557245969772339,-9.195830345153809,3.0802555084228516
1770950692676804900,6.607804931640625,1.9169305562973022,-9.148663520812988,2.9660961627960205
1770950692695772200,6.626772216796875,2.2594897747039795,-9.118558883666992,2.8137125968933105
1770950692714739500,6.645739501953125,2.4771270751953125,-9.10339641571045,2.67626690864563
1770950692733706800,6.664706787109375,2.639122247695923,-9.08564567565918,2.5800118446350098
1770950692752674000,6.683674072265625,2.8686609268188477,-9.082447052001953,2.334594964981079
1770950692771641300,6.702641357421875,3.1169257164001465,-9.094674110412598,1.9344415664672852
1770950692790608600,6.721608642578125,3.338648557662964,-9.068592071533203,1.6686666011810303
1770950692809576000,6.740575927734375,3.583465337753296,-8.997001647949219,1.5437426567077637
1770950692828543200,6.759543212890625,3.830521583557129,-8.90030288696289,1.5106627941131592
1770950692847510500,6.778510498046875,4.031097888946533,-8.810267448425293,1.5165176391601562
1770950692866478000,6.79747802734375,4.15302848815918,-8.750426292419434,1.5338797569274902
1770950692885445400,6.8164453125,4.186333179473877,-8.730242729187012,1.558158278465271
1770950692904412700,6.83541259765625,4.1173787117004395,-8.752828598022461,1.61417818069458
1770950692923380000,6.8543798828125,3.926638603210449,-8.82219123840332,1.7090474367141724
1770950692942347300,6.87334716796875,3.6243796348571777,-8.923528671264648,1.8452355861663818
1770950692961314600,6.892314453125,3.2093207836151123,-9.046751976013184,2.0067224502563477
1770950692980281900,6.91128173828125,2.6777830123901367,-9.183832168579102,2.1580307483673096
1770950692999249200,6.930249267578125,2.2196969985961914,-9.259594917297363,2.345900058746338
1770950693018216400,6.949216552734375,2.148860454559326,-9.25625991821289,2.423722267150879
1770950693037183700,6.968183837890625,2.2398080825805664,-9.26747989654541,2.2950997352600098
1770950693056151000,6.987151123046875,2.319122552871704,-9.281826972961426,2.1540069580078125
1770950693075118600,7.00611865234375,2.388841390609741,-9.264264106750488,2.153425693511963
1770950693094086000,7.0250859375,2.5123467445373535,-9.219666481018066,2.2036900520324707
1770950693113053200,7.04405322265625,2.6367993354797363,-9.197518348693848,2.150197982788086
1770950693132020500,7.0630205078125,2.5884718894958496,-9.223917007446289,2.095128297805786
1770950693150987800,7.08198779296875,2.370521068572998,-9.26785659790039,2.1582062244415283
1770950693169955000,7.100955078125,2.1851181983947754,-9.286433219909668,2.2710800170898438
1770950693188922600,7.119922607421875,2.0738003253936768,-9.261998176574707,2.466804027557373
1770950693207890000,7.138889892578125,2.035855531692505,-9.203102111816406,2.7071356773376465
1770950693226857200,7.157857177734375,2.017542600631714,-9.156416893005371,2.874011278152466
1770950693245824500,7.176824462890625,1.9440597295761108,-9.153076171875,2.9346556663513184
1770950693264791800,7.195791748046875,1.7784548997879028,-9.185815811157227,2.9373939037323
1770950693283759000,7.214759033203125,1.5500773191452026,-9.235103607177734,2.912132501602173
1770950693302726700,7.2337265625,1.326609492301941,-9.277119636535645,2.888866901397705
1770950693321694000,7.25269384765625,1.1472891569137573,-9.30598258972168,2.8727691173553467
1770950693340661200,7.2716611328125,0.9855687618255615,-9.320781707763672,2.884800434112549
1770950693359628500,7.290628662109375,0.8381167054176331,-9.325071334838867,2.917360782623291
1770950693388079600,7.31907958984375,0.7453250288963318,-9.315495491027832,2.9726126194000244
1770950693407047000,7.338046875,0.7398269176483154,-9.310784339904785,2.9887027740478516
1770950693426014200,7.35701416015625,0.749060869216919,-9.31455135345459,2.9746322631835938
1770950693444981500,7.3759814453125,0.7732446789741516,-9.322920799255371,2.942044973373413
1770950693463949000,7.394948974609375,0.8259617686271667,-9.325934410095215,2.91806697845459
1770950693482916400,7.413916259765625,0.916062593460083,-9.316288948059082,2.9219796657562256
1770950693501883600,7.432883544921875,1.0204157829284668,-9.29964828491211,2.9403584003448486
1770950693520851200,7.451851318359375,1.1221215724945068,-9.28327465057373,2.9550023078918457
1770950693539818500,7.470818603515625,1.2227983474731445,-9.264785766601562,2.973029136657715
1770950693558785800,7.489785888671875,1.318073034286499,-9.250321388244629,2.977351188659668
1770950693577753000,7.508753173828125,1.4078248739242554,-9.242149353027344,2.9616010189056396
1770950693596720600,7.527720703125,1.5059123039245605,-9.228241920471191,2.956714391708374
1770950693615688000,7.54668798828125,1.6104488372802734,-9.207584381103516,2.9660134315490723
1770950693634655200,7.5656552734375,1.7612076997756958,-9.176692962646484,2.9760475158691406
1770950693653622500,7.58462255859375,2.1011319160461426,-9.129178047180176,2.900644540786743
1770950693672590000,7.603590087890625,2.593578338623047,-9.058955192565918,2.7164463996887207
1770950693691557400,7.622557373046875,3.0677053928375244,-8.963454246520996,2.5329933166503906
1770950693710524700,7.641524658203125,3.53434157371521,-8.841965675354004,2.344881534576416
1770950693729492000,7.660491943359375,3.961968421936035,-8.710580825805664,2.1445226669311523
1770950693748459500,7.67945947265625,4.317275524139404,-8.599737167358398,1.8910422325134277
1770950693767426800,7.6984267578125,4.6109938621521,-8.505086898803711,1.603943109512329
1770950693786394000,7.71739404296875,4.784698963165283,-8.435477256774902,1.4559407234191895
1770950693805361700,7.736361572265625,4.866184711456299,-8.39533519744873,1.4173885583877563
1770950693824329000,7.755328857421875,4.856609344482422,-8.406949043273926,1.380919098854065
1770950693843296300,7.774296142578125,4.751947402954102,-8.466901779174805,1.3787546157836914
1770950693862263800,7.793263916015625,4.590338230133057,-8.548315048217773,1.4231982231140137
1770950693881231000,7.812231201171875,4.416325569152832,-8.624384880065918,1.5120985507965088
1770950693900198400,7.831198486328125,4.239673137664795,-8.684456825256348,1.6660641431808472
1770950693919166000,7.850166015625,4.057760715484619,-8.724594116210938,1.8937838077545166
1770950693938133200,7.86913330078125,3.8644957542419434,-8.746467590332031,2.176088333129883
1770950693957100500,7.8881005859375,3.6533453464508057,-8.750930786132812,2.498931646347046
1770950693976067800,7.90706787109375,3.4066543579101562,-8.74339485168457,2.849235773086548
1770950693995035400,7.926035400390625,3.100332260131836,-8.732325553894043,3.210110664367676
1770950694014002700,7.945002685546875,2.7121224403381348,-8.744576454162598,3.5138537883758545
1770950694032970000,7.963969970703125,2.319608449935913,-8.812445640563965,3.6236214637756348
1770950694051937500,7.9829375,1.9880421161651611,-8.887917518615723,3.636345624923706
1770950694070904800,8.00190478515625,1.7610429525375366,-8.959228515625,3.5778968334198
1770950694089872400,8.020872314453126,1.6748982667922974,-9.034884452819824,3.42578125
1770950694108839700,8.039839599609374,1.7003637552261353,-9.06937026977539,3.3204941749572754
1770950694127807000,8.058806884765625,1.7184548377990723,-9.077798843383789,3.2879881858825684
1770950694146774500,8.0777744140625,1.5482817888259888,-9.10439682006836,3.2989630699157715
1770950694165741800,8.096741943359374,1.1582119464874268,-9.134841918945312,3.373960494995117
1770950694184709000,8.115709228515625,1.1727219820022583,-9.128992080688477,3.3847599029541016
1770950694203676700,8.1346767578125,1.5891135931015015,-9.140235900878906,3.178236246109009
1770950694222644000,8.15364404296875,1.4950342178344727,-9.217551231384277,2.995328426361084
1770950694241611500,8.172611572265625,1.5272960662841797,-9.262782096862793,2.835244655609131
1770950694260578800,8.191578857421876,1.5786375999450684,-9.270289421081543,2.7820916175842285
1770950694279546000,8.210546142578124,1.3989444971084595,-9.266425132751465,2.889069080352783
1770950694298513700,8.229513671875,1.0650461912155151,-9.266487121582031,3.0279176235198975
1770950694317481000,8.24848095703125,0.7769330739974976,-9.26125717163086,3.129835844039917
1770950694336448500,8.267448486328124,0.6941975951194763,-9.26984691619873,3.1238489151000977
1770950694355415800,8.286415771484375,0.6686563491821289,-9.277342796325684,3.1071221828460693
1770950694374383000,8.305383056640625,0.5942869782447815,-9.27280044555664,3.135664701461792
1770950694393350700,8.3243505859375,0.5440694689750671,-9.249502182006836,3.2126474380493164
1770950694412318000,8.34331787109375,0.6147270202636719,-9.214421272277832,3.2995383739471436
1770950694431285500,8.362285400390626,0.748788058757782,-9.183876037597656,3.3565046787261963
1770950694450252800,8.381252685546874,0.8501786589622498,-9.16714096069336,3.378033399581909
1770950694469220000,8.40022021484375,0.953048825263977,-9.168469429016113,3.3468282222747803
1770950694488187600,8.419187744140626,1.0805785655975342,-9.194090843200684,3.2359602451324463
1770950694507155000,8.438155029296874,1.206669807434082,-9.22632884979248,3.09664249420166
1770950694526122500,8.45712255859375,1.396994709968567,-9.231959342956543,2.9982872009277344
1770950694545089800,8.47608984375,1.758954644203186,-9.187361717224121,2.94429087638855
1770950694564057300,8.495057373046874,2.283803939819336,-9.08718204498291,2.894435167312622
1770950694583024600,8.514024658203125,2.8791651725769043,-8.941866874694824,2.8149259090423584
1770950694601992000,8.532991943359375,3.4542722702026367,-8.773702621459961,2.694538116455078
1770950694620959500,8.55195947265625,3.9628283977508545,-8.610882759094238,2.5137779712677
1770950694639926800,8.5709267578125,4.426287651062012,-8.462610244750977,2.2276875972747803
1770950694658894300,8.589894287109376,4.759532451629639,-8.351033210754395,1.9435737133026123
1770950694677861600,8.608861572265624,5.038200378417969,-8.239872932434082,1.7004221677780151
1770950694696829200,8.6278291015625,5.203033924102783,-8.173290252685547,1.5153069496154785
1770950694715796500,8.64679638671875,5.219204425811768,-8.174813270568848,1.4500699043273926
1770950694734764000,8.665763916015624,5.131961345672607,-8.236230850219727,1.4134584665298462
1770950694753731300,8.6847314453125,4.938365936279297,-8.35493278503418,1.40642511844635
1770950694772698600,8.70369873046875,4.678831100463867,-8.49370002746582,1.4615082740783691
1770950694791666200,8.722666259765624,4.412854194641113,-8.612638473510742,1.5873101949691772
1770950694810633500,8.741633544921875,4.1642746925354,-8.696260452270508,1.7900457382202148
1770950694829601000,8.76060107421875,3.925596237182617,-8.74621295928955,2.064906597137451
1770950694848568300,8.779568359375,3.6603872776031494,-8.77220344543457,2.4125521183013916
1770950694867536000,8.798535888671875,3.3012471199035645,-8.789507865905762,2.831380605697632
1770950694886503200,8.817503173828126,2.8354201316833496,-8.79509162902832,3.2828547954559326
1770950694905470700,8.836470703125,2.3844830989837646,-8.793680191040039,3.6270954608917236
1770950694924438000,8.85543798828125,2.1134567260742188,-8.794107437133789,3.790428400039673
1770950694943405600,8.874405517578126,1.9246962070465088,-8.792678833007812,3.8929073810577393
1770950694962372900,8.893372802734374,1.7852059602737427,-8.852252960205078,3.823747158050537
1770950694981340400,8.91234033203125,1.6822834014892578,-8.947810173034668,3.643760919570923
1770950695000307700,8.9313076171875,1.676042079925537,-9.010913848876953,3.4877922534942627
1770950695019275300,8.950275146484374,1.7672789096832275,-9.032838821411133,3.384512186050415
1770950695038242600,8.96924267578125,1.5596798658370972,-9.079850196838379,3.360670566558838
1770950695057210000,8.988210205078126,1.3358973264694214,-9.087738037109375,3.434936761856079
1770950695076177400,9.007177490234374,1.406568169593811,-9.075251579284668,3.439734697341919
1770950695095145000,9.02614501953125,1.642858862876892,-9.081799507141113,3.3154664039611816
1770950695114112300,9.0451123046875,1.6323823928833008,-9.113615036010742,3.2322943210601807
1770950695133079800,9.064079833984374,1.7049963474273682,-9.118308067321777,3.1811654567718506
1770950695152047000,9.083047119140625,1.63577401638031,-9.11821174621582,3.2175817489624023
1770950695171014700,9.1020146484375,1.4353078603744507,-9.125659942626953,3.2912943363189697
1770950695189982200,9.120982177734374,1.2593413591384888,-9.133049011230469,3.3424346446990967
1770950695208949500,9.139949462890625,1.0510756969451904,-9.142688751220703,3.387752056121826
1770950695227916800,9.158916748046876,0.8068462610244751,-9.159832954406738,3.4083480834960938
1770950695246884400,9.17788427734375,0.5860333442687988,-9.175443649291992,3.411478281021118
1770950695265851600,9.1968515625,0.4723908007144928,-9.183577537536621,3.4072189331054688
1770950695284819200,9.215819091796876,0.45479878783226013,-9.178610801696777,3.4229602813720703
1770950695303786800,9.234786865234375,0.5060949921607971,-9.163825035095215,3.4552230834960938
1770950695322754000,9.253754150390625,0.6102547645568848,-9.142450332641602,3.4947943687438965
1770950695341721600,9.2727216796875,0.7569448947906494,-9.114903450012207,3.537790298461914
1770950695360689000,9.29168896484375,0.9120099544525146,-9.089348793029785,3.5668411254882812
1770950695379656400,9.310656494140625,1.0121947526931763,-9.089391708374023,3.539604425430298
1770950695398623700,9.329623779296876,1.0868126153945923,-9.10030460357666,3.4890806674957275
1770950695417591300,9.34859130859375,1.2094179391860962,-9.103348731994629,3.4404549598693848
1770950695436558600,9.36755859375,1.4609601497650146,-9.084216117858887,3.3930788040161133
1770950695455526100,9.386526123046876,1.86504065990448,-9.029831886291504,3.3397836685180664
1770950695474493700,9.40549365234375,2.386061906814575,-8.940091133117676,3.2483630180358887
1770950695493461000,9.4244609375,2.9440433979034424,-8.814334869384766,3.1321709156036377
1770950695512428500,9.443428466796876,3.495009660720825,-8.666135787963867,2.975463628768921
1770950695531395800,9.462395751953125,3.996711492538452,-8.525325775146484,2.741441488265991
1770950695550363400,9.48136328125,4.464087963104248,-8.345459938049316,2.5681893825531006
1770950695569330700,9.50033056640625,4.825873851776123,-8.209615707397461,2.3416972160339355
1770950695588298200,9.51929833984375,5.053500652313232,-8.147140502929688,2.063155174255371
1770950695607265500,9.538265625,5.157769680023193,-8.139470100402832,1.8212178945541382
1770950695626233000,9.557233154296876,5.141226291656494,-8.182101249694824,1.670743465423584
1770950695645200600,9.57620068359375,5.042479038238525,-8.25779914855957,1.5976669788360596
1770950695664168000,9.59516796875,4.875579833984375,-8.35990047454834,1.5846726894378662
1770950695683135500,9.614135498046876,4.637658596038818,-8.489123344421387,1.6116130352020264
1770950695702102800,9.633102783203125,4.343428134918213,-8.631752967834473,1.6726804971694946
1770950695721070300,9.6520703125,4.020630836486816,-8.762834548950195,1.7937853336334229
1770950695740037600,9.67103759765625,3.6953635215759277,-8.864893913269043,1.9820014238357544
1770950695759005200,9.690005126953125,3.3419809341430664,-8.939810752868652,2.254178285598755
1770950695777972700,9.70897265625,2.935873508453369,-8.980571746826172,2.6268553733825684
1770950695796940000,9.72793994140625,2.4851508140563965,-8.988727569580078,3.032686948776245
1770950695815907600,9.746907470703125,2.0850963592529297,-8.981597900390625,3.3397064208984375
1770950695834875000,9.765875,1.8409154415130615,-8.952845573425293,3.5535855293273926
1770950695853842400,9.784842529296874,1.6372721195220947,-8.942442893981934,3.6772868633270264
1770950695872810000,9.80381005859375,1.4286521673202515,-8.991861343383789,3.6435952186584473
1770950695891777300,9.82277734375,1.2758487462997437,-9.071634292602539,3.4997222423553467
1770950695910744800,9.841744873046874,1.2090058326721191,-9.147254943847656,3.3221116065979004
1770950695929712000,9.860712158203125,1.1842468976974487,-9.202108383178711,3.176345109939575
1770950695948679700,9.8796796875,1.2290765047073364,-9.217975616455078,3.1126649379730225
1770950695967647200,9.898647216796874,1.3763320446014404,-9.187800407409668,3.1401309967041016
1770950695986614500,9.917614501953125,1.3588273525238037,-9.176268577575684,3.1812074184417725
1770950696005582000,9.93658203125,1.0594173669815063,-9.204959869384766,3.2119667530059814
1770950696024549400,9.95554931640625,1.3629134893417358,-9.212593078613281,3.0726191997528076
1770950696043517000,9.974516845703125,1.3848636150360107,-9.228860855102539,3.013413190841675
1770950696062484500,9.993484375,1.3277348279953003,-9.244617462158203,2.9907453060150146
1770950696081451800,10.01245166015625,1.1439510583877563,-9.259096145629883,3.021738290786743
1770950696100419300,10.03141943359375,0.9212486147880554,-9.274801254272461,3.049549102783203
1770950696119387000,10.050386962890625,0.7190713286399841,-9.282114028930664,3.0815069675445557
1770950696138354200,10.069354248046874,0.5064097046852112,-9.283419609069824,3.119624614715576
1770950696157321700,10.08832177734375,0.3090590238571167,-9.2828369140625,3.1470322608947754
1770950696176289000,10.1072890625,0.1825208216905594,-9.280607223510742,3.163447856903076
1770950696195256600,10.126256591796874,0.13888533413410187,-9.272086143493652,3.1905364990234375
1770950696214224100,10.14522412109375,0.1862182766199112,-9.252341270446777,3.244980573654175
1770950696233191400,10.16419140625,0.29288843274116516,-9.221282958984375,3.3245372772216797
1770950696252159000,10.183158935546874,0.41460052132606506,-9.189507484436035,3.3987412452697754
1770950696271126500,10.20212646484375,0.5524553060531616,-9.155097961425781,3.471220016479492
1770950696290093800,10.22109375,0.6998354196548462,-9.138566970825195,3.4881508350372314
1770950696309061400,10.240061279296874,0.8411837220191956,-9.140623092651367,3.4513497352600098
1770950696328029000,10.25902880859375,1.018204927444458,-9.148029327392578,3.3833718299865723
1770950696346996200,10.277996337890626,1.2919182777404785,-9.138758659362793,3.314274549484253
1770950696365963800,10.2969638671875,1.7087231874465942,-9.097128868103027,3.239274740219116
1770950696384931000,10.31593115234375,2.2651240825653076,-9.02192211151123,3.105564594268799
1770950696403898600,10.334898681640626,2.790647506713867,-8.93646240234375,2.9193027019500732
1770950696422866200,10.3538662109375,3.2752606868743896,-8.824942588806152,2.750171184539795
1770950696441833500,10.37283349609375,3.8226325511932373,-8.645467758178711,2.6103172302246094
1770950696460801000,10.391801025390626,4.387533664703369,-8.403656005859375,2.509676933288574
1770950696479768600,10.4107685546875,4.813901424407959,-8.229104042053223,2.2975189685821533
1770950696498735900,10.42973583984375,5.0426106452941895,-8.161885261535645,2.0312814712524414
1770950696517703400,10.448703369140626,5.132463455200195,-8.16767692565918,1.7655738592147827
1770950696536671000,10.4676708984375,5.112349510192871,-8.217970848083496,1.5809005498886108
1770950696555638300,10.48663818359375,5.017833232879639,-8.293018341064453,1.4891568422317505
1770950696574605800,10.505605712890626,4.85307502746582,-8.395185470581055,1.4624990224838257
1770950696593573400,10.524573486328125,4.615846157073975,-8.526041984558105,1.4734193086624146
1770950696612540700,10.543540771484375,4.314772605895996,-8.67333984375,1.5252189636230469
1770950696631508200,10.56250830078125,3.966200113296509,-8.818612098693848,1.6345351934432983
1770950696650475800,10.581475830078125,3.5941874980926514,-8.941385269165039,1.8176432847976685
1770950696669443000,10.600443115234375,3.2035293579101562,-9.023106575012207,2.119279623031616
1770950696688410600,10.61941064453125,2.7703335285186768,-9.04773235321045,2.5756895542144775
1770950696707378200,10.638378173828125,2.29522705078125,-9.01959228515625,3.0901870727539062
1770950696726345500,10.657345458984375,1.9357599020004272,-8.977622032165527,3.4388267993927
1770950696745313000,10.67631298828125,1.6275521516799927,-8.94378662109375,3.6783339977264404
1770950696764280600,10.695280517578125,1.3652360439300537,-8.959952354431152,3.745100259780884
1770950696783248000,10.714247802734375,1.2505677938461304,-9.037040710449219,3.596994400024414
1770950696802215400,10.73321533203125,1.3177931308746338,-9.115388870239258,3.3680121898651123
1770950696821183000,10.752182861328125,1.5338045358657837,-9.14564037322998,3.189842700958252
1770950696840150500,10.771150634765625,1.56442129611969,-9.158594131469727,3.137373924255371
1770950696859117800,10.790117919921874,1.1578315496444702,-9.185951232910156,3.232356309890747
1770950696878085400,10.80908544921875,0.9337601065635681,-9.177916526794434,3.326310873031616
1770950696897053000,10.828052978515625,1.2700705528259277,-9.215136528015137,3.104604721069336
1770950696916020200,10.847020263671874,1.1357316970825195,-9.292223930358887,2.9214835166931152
1770950696934987800,10.86598779296875,1.1360936164855957,-9.307313919067383,2.8729074001312256
1770950696953955300,10.884955322265625,1.2146412134170532,-9.278360366821289,2.9337828159332275
1770950696972923000,10.9039228515625,1.1342273950576782,-9.23627758026123,3.0943655967712402
1770950696991890200,10.92289013671875,0.810397744178772,-9.224703788757324,3.227766752243042
1770950697010857700,10.941857666015625,0.5081129670143127,-9.22806453704834,3.2794857025146484
1770950697029825300,10.9608251953125,0.3111456036567688,-9.233442306518555,3.288940191268921
1770950697048792600,10.97979248046875,0.14372403919696808,-9.244182586669922,3.270292043685913
1770950697067760000,10.998760009765626,-0.016864223405718803,-9.247880935668945,3.262946128845215
1770950697086727400,11.0177275390625,-0.10779919475317001,-9.23360538482666,3.3014049530029297
1770950697105695000,11.036695068359375,-0.0522858127951622,-9.204845428466797,3.382081985473633
1770950697124662500,11.05566259765625,0.07224543392658234,-9.166906356811523,3.483245611190796
1770950697143630000,11.074630126953124,0.20607168972492218,-9.128338813781738,3.5778968334198
1770950697162597400,11.093597412109375,0.35678842663764954,-9.128734588623047,3.5650084018707275
1770950697181565000,11.11256494140625,0.6007784008979797,-9.15664005279541,3.4591023921966553
1770950697200532500,11.131532470703124,0.9778803586959839,-9.180554389953613,3.306291341781616
1770950697219500000,11.1505,1.4355623722076416,-9.168262481689453,3.17056941986084
1770950697238467300,11.16946728515625,2.0074119567871094,-9.094779968261719,3.0701260566711426
1770950697257435000,11.188434814453124,2.669236183166504,-8.957804679870605,2.9670355319976807
1770950697276402400,11.20740234375,3.2034049034118652,-8.82940673828125,2.8196029663085938
1770950697295370000,11.226369873046876,3.591165542602539,-8.724560737609863,2.6750636100769043
1770950697314337300,11.245337158203125,4.036294460296631,-8.594538688659668,2.4520645141601562
1770950697333304800,11.264304931640625,4.363825798034668,-8.524272918701172,2.1128625869750977
1770950697352272400,11.2832724609375,4.590612411499023,-8.47055435180664,1.829308271408081
1770950697371240000,11.302239990234375,4.7407331466674805,-8.419598579406738,1.6751704216003418
1770950697390207200,11.321207275390625,4.737777233123779,-8.432074546813965,1.6198700666427612
1770950697409174800,11.3401748046875,4.612884044647217,-8.504329681396484,1.6025140285491943
1770950697428142300,11.359142333984375,4.400676250457764,-8.612088203430176,1.6236956119537354
1770950697447110000,11.37810986328125,4.123738765716553,-8.73753833770752,1.679460883140564
1770950697466077200,11.3970771484375,3.785505533218384,-8.873403549194336,1.7615448236465454
1770950697485044700,11.416044677734375,3.4072985649108887,-9.000004768371582,1.886960744857788
1770950697504012300,11.43501220703125,3.000173807144165,-9.104432106018066,2.068492889404297
1770950697522979800,11.453979736328124,2.548401117324829,-9.179326057434082,2.3272311687469482
1770950697541947100,11.472947021484375,2.0492630004882812,-9.201436042785645,2.7026798725128174
1770950697560914700,11.491914794921875,1.5588666200637817,-9.149861335754395,3.1654953956604004
1770950697579882200,11.51088232421875,1.2217291593551636,-9.067273139953613,3.5302016735076904
1770950697598849800,11.529849853515625,0.9490585923194885,-9.006147384643555,3.7628443241119385
1770950697617817000,11.548817138671875,0.810896635055542,-9.024615287780762,3.750884771347046
1770950697636784600,11.56778466796875,0.7084016799926758,-9.111266136169434,3.5571610927581787
1770950697655752200,11.586752197265625,0.6101409196853638,-9.209643363952637,3.3136990070343018
1770950697674719700,11.6057197265625,0.6457113027572632,-9.275160789489746,3.11846661567688
1770950697693687000,11.62468701171875,0.40700584650039673,-9.311473846435547,3.049786329269409
1770950697712654600,11.643654541015625,0.30907878279685974,-9.25051212310791,3.2408149242401123
1770950697731622100,11.6626220703125,0.5134674310684204,-9.165066719055176,3.4508423805236816
1770950697750589700,11.681589599609374,0.39600038528442383,-9.113202095031738,3.6004343032836914
1770950697769557000,11.700556884765625,-0.20906999707221985,-9.150842666625977,3.519763708114624
1770950697788524500,11.719524658203126,-0.14961504936218262,-9.199934959411621,3.392524003982544
1770950697807492000,11.7384921875,-0.051741041243076324,-9.225329399108887,3.325808048248291
1770950697826459400,11.75745947265625,-0.081905797123909,-9.226524353027344,3.3218834400177
1770950697845427000,11.776427001953126,-0.24421574175357819,-9.218852043151855,3.3351945877075195
1770950697864394500,11.79539453125,-0.5330239534378052,-9.206839561462402,3.3347232341766357
1770950697883362000,11.814362060546875,-0.908220648765564,-9.179409980773926,3.329259157180786
1770950697902329600,11.83332958984375,-1.2824115753173828,-9.123649597167969,3.3592875003814697
1770950697921297000,11.852296875,-1.5660529136657715,-9.038689613342285,3.4669835567474365
1770950697940264400,11.871264404296875,-1.765810489654541,-8.929574966430664,3.6489691734313965
1770950697959232000,11.89023193359375,-1.9070465564727783,-8.817492485046387,3.8451762199401855
1770950697978199600,11.909199462890625,-1.9477697610855103,-8.712076187133789,4.059101104736328
1770950697997167000,11.9281669921875,-1.8400888442993164,-8.625459671020508,4.287878513336182
1770950698016134400,11.947134521484376,-1.7651135921478271,-8.542753219604492,4.480640411376953
1770950698035102000,11.96610205078125,-1.8476438522338867,-8.433476448059082,4.651137828826904
1770950698054069500,11.985069580078125,-1.9118034839630127,-8.369376182556152,4.740140914916992
1770950698073036800,12.004036865234376,-1.833199381828308,-8.371696472167969,4.767019748687744
1770950698092004400,12.02300439453125,-1.6571879386901855,-8.411551475524902,4.761291980743408
1770950698110972000,12.041971923828125,-1.3840370178222656,-8.492374420166016,4.7047224044799805
1770950698129939500,12.060939453125,-1.0134310722351074,-8.637012481689453,4.532700538635254
1770950698148907000,12.079906982421875,-0.6165745258331299,-8.832985877990723,4.215278625488281
1770950698167874300,12.098874267578125,-0.1808263212442398,-9.010407447814941,3.866555690765381
1770950698186841900,12.117841796875,0.23181571066379547,-9.145052909851074,3.5333640575408936
1770950698205809400,12.136809326171875,0.6211752891540527,-9.223241806030273,3.273580551147461
1770950698224777000,12.15577685546875,1.0317524671554565,-9.280789375305176,2.995465040206909
1770950698243744300,12.174744140625,1.5359714031219482,-9.314109802246094,2.6567883491516113
1770950698262711800,12.1937119140625,1.9275707006454468,-9.34052562713623,2.282421350479126
1770950698281679400,12.212679443359375,2.0408668518066406,-9.4046049118042,1.8864389657974243
1770950698300647000,12.23164697265625,1.9815443754196167,-9.479307174682617,1.5448684692382812
1770950698319614200,12.2506142578125,2.1009678840637207,-9.496664047241211,1.2528748512268066
1770950698338581800,12.269581787109376,2.5439348220825195,-9.411194801330566,1.0621702671051025
1770950698357549300,12.28854931640625,2.998608350753784,-9.275121688842773,1.0727808475494385
1770950698376516900,12.307516845703125,3.3095030784606934,-9.151413917541504,1.2121118307113647
1770950698395484400,12.326484375,3.524209499359131,-9.033979415893555,1.4620264768600464
1770950698414451700,12.34545166015625,3.6336898803710938,-8.939653396606445,1.7462139129638672
1770950698433419300,12.364419189453125,3.5680880546569824,-8.920058250427246,1.967664361000061
1770950698452386800,12.38338671875,3.291870594024658,-8.991472244262695,2.1183531284332275
1770950698471354400,12.402354248046874,2.8852639198303223,-9.10163402557373,2.2373855113983154
1770950698490321700,12.42132177734375,2.50628924369812,-9.179543495178223,2.3716838359832764
1770950698509289200,12.440289306640626,2.649017572402954,-9.122159957885742,2.437063455581665
1770950698528256800,12.4592568359375,2.744917154312134,-9.126669883728027,2.310781717300415
1770950698547224300,12.478224365234375,2.889503002166748,-9.13455867767334,2.0930802822113037
1770950698566191900,12.49719189453125,3.153447389602661,-9.08301830291748,1.9300068616867065
1770950698585159200,12.5161591796875,3.2274253368377686,-9.05020809173584,1.961592197418213
1770950698604126700,12.535126708984375,3.0991530418395996,-9.057178497314453,2.129120349884033
1770950698623094300,12.55409423828125,2.9974172115325928,-9.109272956848145,2.0511040687561035
1770950698642061800,12.573061767578125,2.641798973083496,-9.224775314331055,2.023560047149658
1770950698661029000,12.592029052734375,1.9978086948394775,-9.379693984985352,2.0495142936706543
1770950698679996700,12.61099658203125,1.356994867324829,-9.477886199951172,2.1210007667541504
1770950698698964200,12.629964111328125,0.7987405061721802,-9.486932754516602,2.35170578956604
1770950698717931800,12.648931884765625,0.433864951133728,-9.421430587768555,2.6867785453796387
1770950698736899000,12.667899169921874,0.31851133704185486,-9.326552391052246,3.014026165008545
1770950698755866600,12.68686669921875,-0.13715408742427826,-9.192139625549316,3.4141082763671875
1770950698774834200,12.705834228515625,-0.6862949132919312,-9.121821403503418,3.534369945526123
1770950698793801700,12.7248017578125,-0.8367952108383179,-9.142301559448242,3.4479689598083496
1770950698812769300,12.743769287109375,-0.9192191362380981,-9.157282829284668,3.3866782188415527
1770950698831736600,12.762736572265625,-1.0338311195373535,-9.153924942016602,3.362624406814575
1770950698850704100,12.7817041015625,-1.1523869037628174,-9.142023086547852,3.356457233428955
1770950698869671700,12.800671630859375,-1.325284481048584,-9.109344482421875,3.3813974857330322
1770950698888639200,12.81963916015625,-1.6362684965133667,-9.03723430633545,3.438227891921997
1770950698907606500,12.8386064453125,-2.0365474224090576,-8.922603607177734,3.522784948348999
1770950698926574000,12.857573974609375,-2.333997964859009,-8.800046920776367,3.64445161819458
1770950698945541600,12.876541748046876,-2.41635799407959,-8.706722259521484,3.8111133575439453
1770950698964509200,12.89550927734375,-2.3992156982421875,-8.633797645568848,3.983928680419922
1770950698983476700,12.914476806640625,-2.370347261428833,-8.569130897521973,4.137854099273682
1770950699002444000,12.933444091796876,-2.2810182571411133,-8.536749839782715,4.253378868103027
1770950699021411600,12.95241162109375,-2.219116449356079,-8.532842636108398,4.293773174285889
1770950699040379100,12.971379150390625,-2.2369678020477295,-8.553147315979004,4.243824005126953
1770950699059346700,12.9903466796875,-2.2935943603515625,-8.604326248168945,4.107963562011719
1770950699078314200,13.009314208984375,-2.2843377590179443,-8.685083389282227,3.9397363662719727
1770950699097281500,13.028281494140625,-2.107271432876587,-8.813166618347168,3.749387741088867
1770950699116249000,13.0472490234375,-1.7296833992004395,-8.980562210083008,3.539506196975708
1770950699135216600,13.066216552734375,-1.2141181230545044,-9.145933151245117,3.3238863945007324
1770950699154184000,13.085183837890625,-0.6130814552307129,-9.291779518127441,3.0752782821655273
1770950699173151500,13.1041513671875,0.07768026739358902,-9.360166549682617,2.9243173599243164
1770950699192119000,13.123119140625,0.7740212678909302,-9.34799861907959,2.861152410507202
1770950699211086600,13.142086669921875,1.3248621225357056,-9.311037063598633,2.7784385681152344
1770950699230054100,13.16105419921875,1.6233022212982178,-9.288566589355469,2.6940314769744873
1770950699249021400,13.180021484375,1.8354719877243042,-9.29439640045166,2.5329058170318604
1770950699267989000,13.198989013671875,2.209089517593384,-9.278423309326172,2.2806077003479004
1770950699286956500,13.21795654296875,2.6528759002685547,-9.204023361206055,2.1020421981811523
1770950699305924000,13.236924072265625,3.0978076457977295,-9.094762802124023,1.964500904083252
1770950699324891600,13.2558916015625,3.5288665294647217,-8.962753295898438,1.8402605056762695
1770950699343859000,13.27485888671875,3.9252185821533203,-8.809505462646484,1.776416540145874
1770950699362826500,13.293826416015625,4.306726932525635,-8.632575988769531,1.7609989643096924
1770950699381794000,13.3127939453125,4.637897491455078,-8.456390380859375,1.7747536897659302
1770950699400761600,13.33176171875,4.872890949249268,-8.315657615661621,1.80974280834198
1770950699419729000,13.35072900390625,5.002081394195557,-8.21500015258789,1.9139841794967651
1770950699438696400,13.369696533203125,5.0187602043151855,-8.169718742370605,2.0586698055267334
1770950699457664000,13.3886640625,4.901444911956787,-8.19186019897461,2.244915008544922
1770950699476631600,13.407631591796875,4.649328231811523,-8.28614330291748,2.4277470111846924
1770950699495598800,13.426598876953125,4.298803329467773,-8.428332328796387,2.5795156955718994
1770950699514566400,13.44556640625,3.993269681930542,-8.540163040161133,2.6999611854553223
1770950699533534000,13.464533935546875,3.8476855754852295,-8.594694137573242,2.738054037094116
1770950699552501500,13.48350146484375,3.670043468475342,-8.670663833618164,2.742400884628296
1770950699571469000,13.502468994140624,3.4825072288513184,-8.716529846191406,2.8398334980010986
1770950699590436600,13.5214365234375,3.501202344894409,-8.699337005615234,2.8694074153900146
1770950699609404000,13.54040380859375,3.6358132362365723,-8.645703315734863,2.8640997409820557
1770950699628371500,13.559371337890624,3.5644259452819824,-8.66975212097168,2.881084442138672
1770950699647339000,13.578339111328125,3.5185694694519043,-8.689855575561523,2.876887798309326
1770950699666306600,13.597306640625,3.501391649246216,-8.708027839660645,2.8426945209503174
1770950699685274000,13.616274169921875,3.115309238433838,-8.845239639282227,2.8682687282562256
1770950699704241400,13.635241455078125,2.6008119583129883,-8.9998197555542,2.899898052215576
1770950699723209000,13.654208984375,2.094552755355835,-9.128543853759766,2.9073894023895264
1770950699742176500,13.673176513671875,1.5828160047531128,-9.2085599899292,2.977837085723877
1770950699761144000,13.69214404296875,1.1664055585861206,-9.209461212158203,3.161594867706299
1770950699780111600,13.711111572265626,1.042471170425415,-9.150032997131348,3.370539426803589
1770950699799079000,13.730078857421875,0.961383044719696,-9.075040817260742,3.590230941772461
1770950699818046500,13.74904638671875,0.4494188129901886,-9.031045913696289,3.795868158340454
1770950699837014000,13.768013916015626,0.22434423863887787,-9.021313667297363,3.838745355606079
1770950699855981600,13.786981689453125,0.20941366255283356,-9.030332565307617,3.818328380584717
1770950699874949000,13.80594921875,0.201979398727417,-9.048649787902832,3.775120258331299
1770950699893916700,13.824916748046874,0.1521984487771988,-9.063610076904297,3.7414181232452393
1770950699912884000,13.843884033203125,0.056249044835567474,-9.094939231872559,3.667330026626587
1770950699931851500,13.8628515625,-0.13562631607055664,-9.125905990600586,3.587454319000244
1770950699950819000,13.881819091796874,-0.4574998617172241,-9.126152038574219,3.560116767883301
1770950699969786600,13.90078662109375,-0.881755530834198,-9.077176094055176,3.605243444442749
1770950699988754200,13.919754150390625,-1.321746826171875,-8.986772537231445,3.696120262145996
1770950700007721500,13.938721435546874,-1.6111606359481812,-8.890904426574707,3.811347484588623
1770950700026689000,13.95768896484375,-1.7219243049621582,-8.797306060791016,3.976527452468872
1770950700045656600,13.976656494140625,-1.7868762016296387,-8.70783805847168,4.141378879547119
1770950700064624000,13.9956240234375,-1.8909679651260376,-8.627920150756836,4.260707855224609
1770950700083591700,14.014591796875,-1.8990813493728638,-8.574647903442383,4.363401412963867
1770950700102559200,14.033559326171876,-1.7916779518127441,-8.557905197143555,4.441005229949951
1770950700121526500,14.052526611328124,-1.7522647380828857,-8.557397842407227,4.457676887512207
1770950700140494000,14.071494140625,-1.8376959562301636,-8.5723295211792,4.394134521484375
1770950700159461600,14.090461669921876,-1.9351427555084229,-8.606559753417969,4.284008026123047
1770950700178429200,14.10942919921875,-1.8561222553253174,-8.666862487792969,4.196511745452881
1770950700197396700,14.128396728515625,-1.6354410648345947,-8.763383865356445,4.086420059204102
1770950700216364300,14.1473642578125,-1.3237704038619995,-8.88646125793457,3.930501937866211
1770950700235331600,14.16633154296875,-0.8598043322563171,-9.036246299743652,3.7117879390716553
1770950700254299100,14.185299072265625,-0.25653523206710815,-9.180819511413574,3.4376041889190674
1770950700273266700,14.2042666015625,0.3838999569416046,-9.260472297668457,3.2041611671447754
1770950700292234200,14.223234130859375,0.9691222310066223,-9.264805793762207,3.0650558471679688
1770950700311201800,14.242201904296875,1.4149285554885864,-9.243796348571777,2.953066825866699
1770950700330169300,14.26116943359375,1.713212251663208,-9.243934631347656,2.790154457092285
1770950700349136600,14.28013671875,1.9534568786621094,-9.256848335266113,2.5816969871520996
1770950700368104200,14.299104248046875,2.2554948329925537,-9.249208450317383,2.3527140617370605
1770950700387071700,14.31807177734375,2.6059165000915527,-9.199300765991211,2.18001127243042
1770950700406039300,14.337039306640625,3.029041290283203,-9.110916137695312,1.9966245889663696
1770950700425006800,14.3560068359375,3.5123789310455322,-8.978034019470215,1.7967994213104248
1770950700443974100,14.37497412109375,3.9255170822143555,-8.830952644348145,1.6658283472061157
1770950700462941700,14.393941650390625,4.2435712814331055,-8.696528434753418,1.5915050506591797
1770950700481909200,14.4129091796875,4.508279323577881,-8.566825866699219,1.5669405460357666
1770950700500876800,14.431876708984374,4.742092132568359,-8.433571815490723,1.5993192195892334
1770950700519844400,14.45084423828125,4.917107105255127,-8.316733360290527,1.6805925369262695
1770950700538812000,14.46981201171875,5.00132417678833,-8.241364479064941,1.7991828918457031
1770950700557779200,14.488779296875,4.970108985900879,-8.230643272399902,1.9300053119659424
1770950700576746800,14.507746826171875,4.842504501342773,-8.283724784851074,2.024951457977295
1770950700595714300,14.52671435546875,4.660928726196289,-8.375179290771484,2.074246883392334
1770950700614681900,14.545681884765624,4.428455829620361,-8.482185363769531,2.1474854946136475
1770950700633649400,14.5646494140625,4.168001174926758,-8.577271461486816,2.2866034507751465
1770950700652617000,14.583616943359376,3.9954946041107178,-8.631719589233398,2.38742995262146
1770950700671584500,14.60258447265625,3.883404016494751,-8.68250560760498,2.388232946395874
1770950700690551800,14.6215517578125,3.838787317276001,-8.709786415100098,2.360872268676758
1770950700709519400,14.640519287109376,3.9031436443328857,-8.689337730407715,2.33050799369812
1770950700728487000,14.65948681640625,4.009396076202393,-8.652360916137695,2.2873082160949707
1770950700747454500,14.678454345703125,4.131045341491699,-8.601224899291992,2.2635786533355713
1770950700766422000,14.697422119140626,4.347639560699463,-8.51294231414795,2.1904866695404053
1770950700785389600,14.7163896484375,4.515517234802246,-8.429213523864746,2.174593925476074
1770950700804357000,14.735357177734375,4.369936943054199,-8.495229721069336,2.214752197265625
1770950700823324400,14.754324462890626,3.905001163482666,-8.697009086608887,2.298560619354248
1770950700842292000,14.7732919921875,3.3387696743011475,-8.917083740234375,2.3470466136932373
1770950700861259500,14.792259521484375,2.8057541847229004,-9.096498489379883,2.3562393188476562
1770950700880227000,14.81122705078125,2.8411037921905518,-9.13809585571289,2.1432993412017822
1770950700899194600,14.830194580078125,2.7021543979644775,-9.140055656433105,2.308272361755371
1770950700918162200,14.849162109375,2.4817800521850586,-9.140026092529297,2.5438318252563477
1770950700937129700,14.868129638671874,2.3335535526275635,-9.123688697814941,2.735546827316284
1770950700956097000,14.887096923828125,2.161654233932495,-9.103973388671875,2.9351868629455566
1770950700975064600,14.906064697265625,1.9545140266418457,-9.101567268371582,3.084110736846924
1770950700994032000,14.9250322265625,1.7454684972763062,-9.111950874328613,3.177433967590332
1770950701012999700,14.943999755859375,1.5527989864349365,-9.132838249206543,3.2172155380249023
1770950701031967200,14.96296728515625,1.3676213026046753,-9.164487838745117,3.2112557888031006
1770950701050934800,14.981934814453124,1.1923575401306152,-9.19324779510498,3.198885202407837
1770950701069902300,15.00090234375,1.0436737537384033,-9.207073211669922,3.211064338684082
1770950701088870000,15.019869873046876,0.959295928478241,-9.210685729980469,3.2269811630249023
1770950701107837200,15.038837158203124,0.9432744383811951,-9.208819389343262,3.237013816833496
1770950701126804700,15.0578046875,0.9722397923469543,-9.208471298217773,3.229426622390747
1770950701145772300,15.076772216796876,1.0278133153915405,-9.207399368286133,3.2152440547943115
1770950701164739800,15.09573974609375,1.11812162399292,-9.198493957519531,3.210590124130249
1770950701183707400,15.114707275390625,1.2389981746673584,-9.182051658630371,3.2132856845855713
1770950701202675000,15.133675048828126,1.3308547735214233,-9.163546562194824,3.2293388843536377
1770950701221642500,15.152642578125,1.4184794425964355,-9.147930145263672,3.236309051513672
1770950701240610000,15.171610107421875,1.5114943981170654,-9.135429382324219,3.229506492614746
1770950701259577300,15.190577392578126,1.6200155019760132,-9.111457824707031,3.244575023651123
1770950701278545000,15.209544921875,1.7293376922607422,-9.069066047668457,3.306330442428589
1770950701297512400,15.228512451171875,1.811179757118225,-9.029233932495117,3.3708980083465576
1770950701316480000,15.24747998046875,1.8802083730697632,-9.002470016479492,3.404517412185669
1770950701335447600,15.266447509765625,1.9219701290130615,-8.990567207336426,3.412642002105713
1770950701354415000,15.2854150390625,1.9317454099655151,-8.989237785339355,3.410623550415039
1770950701373382700,15.304382568359374,2.005683660507202,-8.986271858215332,3.375582695007324
1770950701392350200,15.32335009765625,2.2119030952453613,-8.95654582977295,3.325380325317383
1770950701411317800,15.34231787109375,2.5765299797058105,-8.878381729125977,3.2720370292663574
1770950701430285000,15.36128515625,3.061406135559082,-8.740792274475098,3.2243947982788086
1770950701449252600,15.380252685546875,3.5602474212646484,-8.581905364990234,3.1378231048583984
1770950701468220200,15.39922021484375,4.053433418273926,-8.40792179107666,3.0078108310699463
1770950701487187700,15.418187744140624,4.498035430908203,-8.252786636352539,2.798135995864868
1770950701506155300,15.4371552734375,4.862646102905273,-8.146008491516113,2.4834704399108887
1770950701525122800,15.456122802734376,5.205085277557373,-8.041271209716797,2.1012959480285645
1770950701544090400,15.47509033203125,5.479429244995117,-7.924993991851807,1.8277595043182373
1770950701563058000,15.494057861328125,5.686381816864014,-7.821864604949951,1.629076361656189
1770950701582025500,15.513025390625,5.801940441131592,-7.768291473388672,1.4702119827270508
1770950701600992800,15.53199267578125,5.837963104248047,-7.7622456550598145,1.3550355434417725
1770950701619960300,15.550960205078125,5.83225154876709,-7.782299995422363,1.2613623142242432
1770950701638928000,15.569927978515626,5.783132076263428,-7.828317642211914,1.2013391256332397
1770950701657895400,15.5888955078125,5.681873798370361,-7.899554252624512,1.2180886268615723
1770950701676863000,15.607863037109375,5.531795501708984,-7.990520000457764,1.3119531869888306
1770950701695830500,15.62683056640625,5.349336624145508,-8.084022521972656,1.4844428300857544
1770950701714798000,15.645798095703125,5.126262187957764,-8.187390327453613,1.6907017230987549
1770950701733765600,15.664765625,4.865185260772705,-8.296525001525879,1.9152157306671143
1770950701752733200,15.683733154296876,4.546438217163086,-8.413298606872559,2.1717958450317383
1770950701771700700,15.70270068359375,4.145188331604004,-8.52759075164795,2.5036001205444336
1770950701790668000,15.72166796875,3.654754161834717,-8.627638816833496,2.8943064212799072
1770950701809635600,15.740635498046874,3.1138346195220947,-8.706670761108398,3.26623797416687
1770950701828603100,15.75960302734375,2.6364598274230957,-8.76547908782959,3.5193519592285156
1770950701847570700,15.77857080078125,2.1511051654815674,-8.818326950073242,3.7121741771698
1770950701866538200,15.797538330078124,1.7582063674926758,-8.889121055603027,3.7500195503234863
1770950701885505800,15.816505859375,1.557895541191101,-8.975641250610352,3.6305932998657227
1770950701904473300,15.835473388671875,1.4855575561523438,-9.042902946472168,3.491333484649658
1770950701923441000,15.85444091796875,1.507425308227539,-9.073719024658203,3.400834798812866
1770950701942408400,15.873408447265625,1.706081748008728,-9.077983856201172,3.293916940689087
1770950701961376000,15.8923759765625,1.8448792695999146,-9.086933135986328,3.192873954772949
1770950701980343600,15.911343505859374,1.5819185972213745,-9.126837730407715,3.22005558013916
1770950701999310800,15.930310791015625,1.5269967317581177,-9.102384567260742,3.314401149749756
1770950702018278400,15.9492783203125,1.6078097820281982,-9.113094329833984,3.2460527420043945
1770950702037246000,15.968245849609374,1.6912716627120972,-9.174799919128418,3.022092342376709
1770950702056213500,15.987213623046875,1.694571852684021,-9.181805610656738,2.998875617980957
1770950702075181000,16.00618115234375,1.6906160116195679,-9.17561149597168,3.0199930667877197
1770950702094148600,16.025148681640626,1.441670536994934,-9.18493366241455,3.1191318035125732
1770950702113116200,16.0441162109375,1.1345417499542236,-9.206439018249512,3.1819283962249756
1770950702132083700,16.063083740234376,1.0811131000518799,-9.210594177246094,3.1885008811950684
1770950702151051300,16.08205126953125,1.0220357179641724,-9.206892967224121,3.2185349464416504
1770950702170018800,16.101018798828125,0.9282622337341309,-9.200332641601562,3.2653648853302
1770950702188986400,16.119986328125,0.8296869397163391,-9.191793441772461,3.315561056137085
1770950702207953700,16.13895361328125,0.7844187021255493,-9.183570861816406,3.3491947650909424
1770950702226921200,16.157921142578125,0.8221067190170288,-9.174615859985352,3.364664316177368
1770950702245888800,16.176888671875,0.8946961760520935,-9.15929889678955,3.3877947330474854
1770950702264856300,16.195856201171875,0.9548824429512024,-9.140356063842773,3.422348737716675
1770950702283823900,16.214823974609374,1.0114067792892456,-9.126503944396973,3.4430150985717773
1770950702302791400,16.23379150390625,1.1310092210769653,-9.108057975769043,3.454631805419922
1770950702321759000,16.252759033203127,1.2743229866027832,-9.092127799987793,3.446692943572998
1770950702340726500,16.2717265625,1.4294028282165527,-9.07482624053955,3.431431293487549
1770950702359694000,16.290694091796876,1.678100347518921,-9.034966468811035,3.4239983558654785
1770950702378661600,16.30966162109375,2.1206254959106445,-8.967476844787598,3.3552474975585938
1770950702397629000,16.32862890625,2.6877880096435547,-8.886131286621094,3.159566879272461
1770950702416596700,16.3475966796875,3.2127068042755127,-8.795948028564453,2.9120781421661377
1770950702435564000,16.36656396484375,3.7405459880828857,-8.661867141723633,2.674088478088379
1770950702454531600,16.385531494140626,4.298451900482178,-8.453031539916992,2.4979915618896484
1770950702473499100,16.4044990234375,4.8258795738220215,-8.201842308044434,2.3687660694122314
1770950702492466700,16.423466796875,5.255629539489746,-7.99521017074585,2.150662899017334
1770950702511434200,16.442434326171874,5.520650386810303,-7.885099411010742,1.8756409883499146
1770950702530401800,16.46140185546875,5.629765033721924,-7.864185810089111,1.6219483613967896
1770950702549369300,16.480369384765623,5.636284828186035,-7.894580364227295,1.4416199922561646
1770950702568337000,16.4993369140625,5.558743476867676,-7.970539093017578,1.319568157196045
1770950702587304400,16.518304443359376,5.381349563598633,-8.105244636535645,1.2314560413360596
1770950702606272000,16.53727197265625,5.11253547668457,-8.28553581237793,1.1757001876831055
1770950702625239600,16.556239501953126,4.779618263244629,-8.479019165039062,1.1965994834899902
1770950702644207000,16.57520703125,4.4138054847717285,-8.657232284545898,1.3194905519485474
1770950702663174700,16.594174560546875,4.030762672424316,-8.800719261169434,1.571836233139038
1770950702682142000,16.613141845703126,3.6176347732543945,-8.89736557006836,1.979894995689392
1770950702701109500,16.632109619140625,3.1459767818450928,-8.946792602539062,2.4956207275390625
1770950702720077000,16.6510771484375,2.6562817096710205,-8.945463180541992,3.0154988765716553
1770950702739044600,16.670044677734374,2.289841413497925,-8.928229331970215,3.348691940307617
1770950702758012200,16.68901220703125,1.9817912578582764,-8.920952796936035,3.558016538619995
1770950702776979700,16.707979736328124,1.686541199684143,-8.942766189575195,3.654160499572754
1770950702795947300,16.726947265625,1.527942419052124,-9.000020980834961,3.5826518535614014
1770950702814914800,16.745914794921877,1.490405797958374,-9.068305969238281,3.422703981399536
1770950702833882400,16.76488232421875,1.5714192390441895,-9.111827850341797,3.26735782623291
1770950702852850000,16.783849853515626,1.7426320314407349,-9.115884780883789,3.167691230773926
1770950702871817200,16.802817138671877,1.6649963855743408,-9.1358003616333,3.1520354747772217
1770950702890784800,16.82178466796875,1.3499153852462769,-9.169622421264648,3.2040855884552
1770950702909752300,16.84075244140625,1.1225045919418335,-9.195658683776855,3.217177391052246
1770950702928720000,16.859719970703125,1.423680067062378,-9.221720695495605,3.017181634902954
1770950702947687400,16.8786875,1.3803342580795288,-9.239642143249512,2.9822943210601807
1770950702966655000,16.897655029296875,1.4473910331726074,-9.233367919921875,2.969910144805908
1770950702985622500,16.91662255859375,1.5025473833084106,-9.204010009765625,3.032973527908325
1770950703004590000,16.935590087890624,1.291686773300171,-9.186477661132812,3.179708480834961
1770950703023557600,16.9545576171875,0.9334263801574707,-9.19426441192627,3.280945062637329
1770950703042525200,16.973525146484373,0.6786798238754272,-9.205007553100586,3.3132503032684326
1770950703061492700,16.99249267578125,0.5639928579330444,-9.227765083312988,3.271184206008911
1770950703080460000,17.0114599609375,0.46681270003318787,-9.253785133361816,3.2124671936035156
1770950703099427600,17.030427490234374,0.3629756271839142,-9.263757705688477,3.1970973014831543
1770950703118395100,17.04939501953125,0.3975331783294678,-9.246700286865234,3.2420525550842285
1770950703137362700,17.06836279296875,0.5322638154029846,-9.212319374084473,3.3196792602539062
1770950703156330200,17.087330322265625,0.6481372714042664,-9.174677848815918,3.402292251586914
1770950703175297800,17.1062978515625,0.7165653109550476,-9.14577865600586,3.4657840728759766
1770950703194265300,17.125265380859375,0.7663232088088989,-9.133325576782227,3.487907886505127
1770950703213233000,17.14423291015625,0.8554412126541138,-9.15475845336914,3.410134792327881
1770950703232200400,17.163200439453124,0.9683186411857605,-9.181641578674316,3.306084632873535
1770950703251168000,17.18216796875,1.1483725309371948,-9.179729461669922,3.2533373832702637
1770950703270135600,17.201135498046874,1.52164626121521,-9.121525764465332,3.2638537883758545
1770950703289102800,17.220102783203124,2.0786690711975098,-9.019747734069824,3.2393922805786133
1770950703308070400,17.2390703125,2.707059860229492,-8.887962341308594,3.1378886699676514
1770950703327038000,17.258037841796874,3.288006067276001,-8.759221076965332,2.938612222671509
1770950703346005500,17.277005615234376,3.7721078395843506,-8.635133743286133,2.7158920764923096
1770950703364973000,17.29597314453125,4.253781318664551,-8.475300788879395,2.498999834060669
1770950703383940600,17.314940673828126,4.687405586242676,-8.31605339050293,2.245408296585083
1770950703402908200,17.333908203125,5.039626121520996,-8.178695678710938,1.9701536893844604
1770950703421875700,17.352875732421875,5.274110317230225,-8.090129852294922,1.7040969133377075
1770950703440843300,17.37184326171875,5.336349010467529,-8.09056282043457,1.4955164194107056
1770950703459810800,17.390810791015625,5.308418273925781,-8.135540962219238,1.3431529998779297
1770950703478778000,17.409778076171875,5.191751003265381,-8.226318359375,1.2424935102462769
1770950703497745700,17.42874560546875,4.983073711395264,-8.361092567443848,1.1964526176452637
1770950703516713200,17.447713134765625,4.713612079620361,-8.513774871826172,1.2115634679794312
1770950703535680800,17.4666806640625,4.427825927734375,-8.650413513183594,1.3172286748886108
1770950703554648300,17.4856484375,4.134390354156494,-8.75613021850586,1.5515775680541992
1770950703573615900,17.504615966796877,3.8173272609710693,-8.824068069458008,1.9324088096618652
1770950703592583400,17.52358349609375,3.4589762687683105,-8.846415519714355,2.438608407974243
1770950703611551000,17.542551025390626,3.0365493297576904,-8.832315444946289,2.9899790287017822
1770950703630518500,17.5615185546875,2.5805675983428955,-8.816826820373535,3.431417942047119
1770950703649485800,17.58048583984375,2.241410255432129,-8.840227127075195,3.605114459991455
1770950703668453400,17.599453369140626,1.88824462890625,-8.879327774047852,3.709777355194092
1770950703687421000,17.6184208984375,1.5844385623931885,-8.944157600402832,3.6962125301361084
1770950703706388500,17.637388427734376,1.4297819137573242,-9.020974159240723,3.5704541206359863
1770950703725356000,17.65635595703125,1.4697946310043335,-9.066617965698242,3.4360642433166504
1770950703744323600,17.675323486328125,1.5584001541137695,-9.093904495239258,3.323052406311035
1770950703763291100,17.694291015625,1.4402503967285156,-9.120471000671387,3.3034958839416504
1770950703782258700,17.7132587890625,1.1539714336395264,-9.150915145874023,3.3315865993499756
1770950703801226000,17.73222607421875,1.4095005989074707,-9.150181770324707,3.2338643074035645
1770950703820193500,17.751193603515624,1.6573920249938965,-9.172188758850098,3.0486679077148438
1770950703839161000,17.7701611328125,1.5402439832687378,-9.231226921081543,2.929590940475464
1770950703858128600,17.789128662109373,1.6278153657913208,-9.235588073730469,2.8678410053253174
1770950703877096200,17.80809619140625,1.6881405115127563,-9.203810691833496,2.934352397918701
1770950703896063700,17.827063720703126,1.4066102504730225,-9.184504508972168,3.1363542079925537
1770950703915031300,17.84603125,1.0082128047943115,-9.181123733520508,3.295583963394165
1770950703933998800,17.864998779296876,0.9168357253074646,-9.193258285522461,3.28843355178833
1770950703952966100,17.883966064453126,0.905108630657196,-9.219497680664062,3.2174575328826904
1770950703971933700,17.90293359375,0.7706556916236877,-9.250779151916504,3.1622085571289062
1770950703990901200,17.9219013671875,0.621788740158081,-9.270883560180664,3.1360013484954834
1770950704009868800,17.940868896484375,0.621545135974884,-9.264259338378906,3.1555612087249756
1770950704028836400,17.95983642578125,0.7221068143844604,-9.236092567443848,3.216137647628784
1770950704047804000,17.978803955078124,0.8159360289573669,-9.198261260986328,3.3010036945343018
1770950704066771500,17.997771484375,0.8841554522514343,-9.153646469116211,3.4057912826538086
1770950704085738800,18.01673876953125,0.9389074444770813,-9.135497093200684,3.4396982192993164
1770950704104706300,18.035706298828124,1.038134217262268,-9.143305778503418,3.3900773525238037
1770950704123673900,18.054673828125,1.180429220199585,-9.143939018249512,3.341458559036255
1770950704142641400,18.073641357421874,1.3742189407348633,-9.117679595947266,3.3391354084014893
1770950704161609000,18.09260888671875,1.6538633108139038,-9.06311321258545,3.3608205318450928
1770950704180576500,18.111576416015627,2.084010601043701,-8.979985237121582,3.344721555709839
1770950704199544000,18.1305439453125,2.632052183151245,-8.863037109375,3.2694432735443115
1770950704218511400,18.149511474609376,3.192885637283325,-8.737553596496582,3.1033883094787598
1770950704237479000,18.16847900390625,3.682816982269287,-8.614123344421387,2.8989877700805664
1770950704256446500,18.187446533203126,4.126026153564453,-8.476385116577148,2.7013299465179443
1770950704275414000,18.2064140625,4.549706935882568,-8.335383415222168,2.447842597961426
1770950704294381600,18.225381591796875,4.894942760467529,-8.205822944641113,2.207801580429077
1770950704313349000,18.24434912109375,5.14794921875,-8.104780197143555,1.9953776597976685
1770950704332316400,18.26331640625,5.261931419372559,-8.068523406982422,1.8388557434082031
1770950704351284000,18.282283935546875,5.270545959472656,-8.091358184814453,1.7092814445495605
1770950704370251500,18.30125146484375,5.181526184082031,-8.167707443237305,1.615780234336853
1770950704389219000,18.320218994140625,5.002453804016113,-8.28987979888916,1.5568346977233887
1770950704408186600,18.3391865234375,4.753889560699463,-8.443109512329102,1.5115636587142944
1770950704427154200,18.358154296875,4.472003936767578,-8.594902038574219,1.5163228511810303
1770950704446121500,18.37712158203125,4.188898086547852,-8.715497016906738,1.632062315940857
1770950704465089000,18.396089111328124,3.8943288326263428,-8.804300308227539,1.8678518533706665
1770950704484056600,18.415056640625,3.5912060737609863,-8.86013412475586,2.1844122409820557
1770950704503024000,18.434024169921877,3.2696502208709717,-8.883347511291504,2.562403917312622
1770950704521991700,18.45299169921875,2.945162057876587,-8.871837615966797,2.964271306991577
1770950704540959200,18.471959228515626,2.6498420238494873,-8.846831321716309,3.2988317012786865
1770950704559926500,18.490926513671877,2.4066860675811768,-8.836118698120117,3.5073132514953613
1770950704578894000,18.50989404296875,2.064626932144165,-8.85393238067627,3.676356315612793
1770950704597861600,18.528861572265626,1.726550579071045,-8.913427352905273,3.706779956817627
1770950704616829200,18.5478291015625,1.5099797248840332,-8.98830795288086,3.6194844245910645
1770950704635796700,18.566796630859375,1.4329603910446167,-9.062639236450195,3.4620232582092285
1770950704654764000,18.585763916015626,1.5357497930526733,-9.115079879760742,3.275237560272217
1770950704673731600,18.604731689453125,1.6643593311309814,-9.138444900512695,3.144697904586792
1770950704692699100,18.62369921875,1.5481563806533813,-9.155659675598145,3.1539673805236816
1770950704711666700,18.642666748046874,1.3799203634262085,-9.160035133361816,3.2186906337738037
1770950704730634000,18.661634033203125,1.4379459619522095,-9.126992225646973,3.2864444255828857
1770950704749601500,18.6806015625,1.4610198736190796,-9.183758735656738,3.113582134246826
1770950704768569000,18.699569091796874,1.5739399194717407,-9.244664192199707,2.868673324584961
1770950704787536600,18.71853662109375,1.6826187372207642,-9.213955879211426,2.9055464267730713
1770950704806504200,18.737504150390624,1.770402193069458,-9.175941467285156,2.9729058742523193
1770950704825471500,18.756471435546874,1.5037695169448853,-9.19105339050293,3.0714144706726074
1770950704844439000,18.77543896484375,1.1239137649536133,-9.21820068359375,3.1515045166015625
1770950704863406600,18.794406494140624,0.9476546049118042,-9.23059368133545,3.1730875968933105
1770950704882374100,18.8133740234375,0.8214953541755676,-9.240519523620605,3.1793606281280518
1770950704901341400,18.832341552734373,0.6960160136222839,-9.247262001037598,3.189685106277466
1770950704920309000,18.85130908203125,0.6153467297554016,-9.245490074157715,3.211329936981201
1770950704939276500,18.870276611328126,0.5693811774253845,-9.228548049926758,3.2680420875549316
1770950704958244000,18.889244140625,0.5545631051063538,-9.19482135772705,3.364238739013672
1770950704977211600,18.908211669921876,0.5886533856391907,-9.149896621704102,3.4789748191833496
1770950704996179000,18.927178955078126,0.6753785014152527,-9.105380058288574,3.5785880088806152
1770950705015146500,18.946146484375,0.8063116073608398,-9.06826114654541,3.6451196670532227
1770950705034114000,18.965114013671876,0.9537107944488525,-9.05826473236084,3.6343719959259033
1770950705053081600,18.98408154296875,1.115228533744812,-9.069905281066895,3.5585756301879883
1770950705072049000,19.003048828125,1.2696844339370728,-9.088011741638184,3.459239959716797
1770950705091016400,19.022016357421876,1.4263665676116943,-9.096025466918945,3.376122236251831
1770950705109984000,19.04098388671875,1.6352978944778442,-9.07356071472168,3.3416588306427
1770950705128951600,19.05995166015625,1.8774663209915161,-9.023322105407715,3.350398540496826
1770950705147918800,19.0789189453125,2.1329519748687744,-8.972493171691895,3.3339576721191406
1770950705166886400,19.097886474609375,2.458988904953003,-8.940192222595215,3.1932308673858643
1770950705185854000,19.11685400390625,2.7966949939727783,-8.928614616394043,2.937469244003296
1770950705204821500,19.135821533203124,3.1486289501190186,-8.902146339416504,2.647324323654175
1770950705223788800,19.154788818359375,3.558399200439453,-8.801480293273926,2.4580726623535156
1770950705242756400,19.17375634765625,4.011716842651367,-8.635068893432617,2.347787618637085
1770950705261724000,19.192723876953124,4.412494659423828,-8.491609573364258,2.1430933475494385
1770950705280691500,19.21169140625,4.712724208831787,-8.384140014648438,1.9148917198181152
1770950705299658800,19.23065869140625,4.880383014678955,-8.322691917419434,1.7564330101013184
1770950705318626300,19.249626220703124,4.962591648101807,-8.298850059509277,1.6346774101257324
1770950705337593900,19.26859375,4.987874507904053,-8.302042007446289,1.5386962890625
1770950705356561400,19.2875615234375,4.954609394073486,-8.329102516174316,1.4994299411773682
1770950705375528700,19.30652880859375,4.88136100769043,-8.37222671508789,1.4995149374008179
1770950705394496300,19.325496337890623,4.786377429962158,-8.41991138458252,1.5382052659988403
1770950705413463800,19.3444638671875,4.678679466247559,-8.459418296813965,1.648808240890503
1770950705432431400,19.363431396484376,4.563671588897705,-8.483689308166504,1.8358376026153564
1770950705451398700,19.382398681640623,4.434291362762451,-8.497088432312012,2.0753180980682373
1770950705470366200,19.4013662109375,4.298049449920654,-8.50328254699707,2.3219282627105713
1770950705489333800,19.420333740234376,4.157357215881348,-8.505017280578613,2.559581995010376
1770950705508301000,19.439301025390623,3.9874136447906494,-8.511594772338867,2.7970831394195557
1770950705527268600,19.4582685546875,3.7272849082946777,-8.543582916259766,3.047116279602051
1770950705546236200,19.477236083984376,3.3821585178375244,-8.599159240722656,3.284179925918579
1770950705565203700,19.49620361328125,3.0095455646514893,-8.666285514831543,3.465331792831421
1770950705584171000,19.5151708984375,2.655808448791504,-8.746134757995605,3.55277156829834
1770950705603138600,19.534138671875,2.302182912826538,-8.824034690856934,3.6064860820770264
1770950705622106000,19.553106201171875,1.9424388408660889,-8.90249252319336,3.62532114982605
1770950705641073400,19.572073486328126,1.6709798574447632,-8.971961975097656,3.5891659259796143
1770950705660041000,19.591041015625,1.5755990743637085,-9.01186466217041,3.5318801403045654
1770950705679008500,19.610008544921875,1.6037464141845703,-9.032115936279297,3.466881275177002
1770950705697975800,19.628975830078126,1.6548054218292236,-9.044002532958984,3.41145396232605
1770950705716943400,19.647943359375,1.7739284038543701,-9.053120613098145,3.3263444900512695
1770950705735911000,19.666910888671875,1.8057761192321777,-9.067825317382812,3.2686562538146973
1770950705754878200,19.685878173828126,1.5891637802124023,-9.08227825164795,3.340233325958252
1770950705773845800,19.704845703125,1.5621252059936523,-9.0586519241333,3.4162814617156982
1770950705792813300,19.723813232421875,1.586696982383728,-9.139135360717773,3.1826071739196777
1770950705811780600,19.742780517578126,1.6380693912506104,-9.231383323669434,2.875532865524292
1770950705830748200,19.761748046875,1.6641440391540527,-9.238276481628418,2.838179111480713
1770950705849715700,19.7807158203125,1.6218438148498535,-9.238945960998535,2.860398769378662
1770950705868683000,19.79968310546875,1.4788941144943237,-9.237876892089844,2.940216541290283
1770950705887650600,19.818650634765625,1.2911145687103271,-9.232081413269043,3.0450093746185303
1770950705906618000,19.8376181640625,1.085802674293518,-9.226666450500488,3.1400692462921143
1770950705925585400,19.85658544921875,0.900390088558197,-9.223445892333984,3.2074503898620605
1770950705944553000,19.875552978515625,0.7520272731781006,-9.220355987548828,3.25420880317688
1770950705963520300,19.894520263671875,0.6206900477409363,-9.215035438537598,3.2967028617858887
1770950705982487800,19.91348779296875,0.5203506350517273,-9.209386825561523,3.3296871185302734
1770950706001455400,19.932455322265625,0.46025827527046204,-9.199631690979004,3.365311622619629
1770950706020422700,19.951422607421875,0.42668697237968445,-9.184700965881348,3.410219669342041
1770950706039390000,19.970389892578126,0.42570924758911133,-9.165312767028809,3.4621105194091797
1770950706058357500,19.989357421875,0.4484284818172455,-9.148361206054688,3.5038235187530518
1770950706077325000,20.008324951171875,0.4809352457523346,-9.141464233398438,3.517486333847046
1770950706096292600,20.027292724609374,0.5597737431526184,-9.137602806091309,3.5158579349517822
1770950706115260000,20.046260009765625,0.722668468952179,-9.143563270568848,3.4703595638275146
1770950706134227500,20.0652275390625,0.9356966614723206,-9.154791831970215,3.3888983726501465
1770950706153195000,20.084195068359374,1.1361662149429321,-9.156477928161621,3.3224117755889893
1770950706172162300,20.103162353515625,1.3008630275726318,-9.140375137329102,3.3063080310821533
1770950706191129900,20.1221298828125,1.421514868736267,-9.1069917678833,3.3484878540039062
1770950706210097200,20.14109716796875,1.4709469079971313,-9.077914237976074,3.405608892440796
1770950706229064700,20.160064697265625,1.4856767654418945,-9.062244415283203,3.4407670497894287
1770950706248032300,20.1790322265625,1.5259305238723755,-9.049113273620605,3.457669496536255
1770950706266999600,20.19799951171875,1.587623119354248,-9.03902816772461,3.4562697410583496
1770950706285967000,20.216967041015625,1.7242653369903564,-9.024842262268066,3.427755117416382
1770950706304934700,20.2359345703125,2.0303871631622314,-8.990873336791992,3.3484530448913574
1770950706323902000,20.25490185546875,2.490507125854492,-8.917271614074707,3.2326478958129883
1770950706342869500,20.273869384765625,3.009909152984619,-8.793058395385742,3.1293697357177734
1770950706361837000,20.292837158203124,3.5147500038146973,-8.640515327453613,3.02628755569458
1770950706380804400,20.311804443359375,3.9711618423461914,-8.47235107421875,2.9359042644500732
1770950706399772000,20.33077197265625,4.370319843292236,-8.329584121704102,2.772855043411255
1770950706418739200,20.3497392578125,4.669799327850342,-8.245298385620117,2.5255537033081055
1770950706437706800,20.368706787109375,4.833665370941162,-8.238273620605469,2.2219154834747314
1770950706456674300,20.38767431640625,4.9084649085998535,-8.258766174316406,1.967267394065857
1770950706475641600,20.4066416015625,4.965819358825684,-8.26394271850586,1.793952226638794
1770950706494609200,20.425609130859375,4.987372398376465,-8.273295402526855,1.6879287958145142
1770950706513576400,20.444576416015625,4.954702854156494,-8.304201126098633,1.6314213275909424
1770950706532544000,20.4635439453125,4.885898590087891,-8.348969459533691,1.6103094816207886
1770950706551511600,20.482511474609375,4.79802131652832,-8.395363807678223,1.6331709623336792
1770950706570478800,20.501478759765625,4.692237377166748,-8.43956184387207,1.710874319076538
1770950706589446400,20.5204462890625,4.568416595458984,-8.485776901245117,1.8142591714859009
1770950706608413700,20.53941357421875,4.4191975593566895,-8.541044235229492,1.9213676452636719
1770950706627381200,20.55838134765625,4.239637851715088,-8.601297378540039,2.0526928901672363
1770950706646348800,20.577348876953124,4.038060188293457,-8.659321784973145,2.2092106342315674
1770950706665316000,20.596316162109375,3.8111329078674316,-8.714733123779297,2.3872766494750977
1770950706684283600,20.61528369140625,3.5611135959625244,-8.764891624450684,2.5817713737487793
1770950706703251000,20.6342509765625,3.289419651031494,-8.806828498840332,2.7910375595092773
1770950706722218500,20.653218505859375,2.988002061843872,-8.843050003051758,3.007110118865967
1770950706741185800,20.672185791015625,2.6794140338897705,-8.866546630859375,3.221097707748413
1770950706760153300,20.6911533203125,2.4011731147766113,-8.871825218200684,3.4198668003082275
1770950706779121000,20.710120849609375,2.1485507488250732,-8.884819984436035,3.55163311958313
1770950706798088200,20.729088134765625,1.9045178890228271,-8.917509078979492,3.6084933280944824
1770950706817055700,20.7480556640625,1.6747090816497803,-8.967947959899902,3.5974512100219727
1770950706836023000,20.76702294921875,1.4874404668807983,-9.017558097839355,3.555495500564575
1770950706854990600,20.785990478515625,1.3291363716125488,-9.059090614318848,3.5123565196990967
1770950706873958000,20.8049580078125,1.2093337774276733,-9.100208282470703,3.4487831592559814
1770950706892925400,20.823925537109375,1.2561206817626953,-9.131086349487305,3.3489983081817627
1770950706911893000,20.84289306640625,1.3315991163253784,-9.147732734680176,3.2735633850097656
1770950706930860300,20.8618603515625,1.2017015218734741,-9.16899585723877,3.26432466506958
1770950706949827800,20.880827880859375,1.07789945602417,-9.185478210449219,3.2612147331237793
1770950706968795100,20.899795166015625,1.3206548690795898,-9.169909477233887,3.2154364585876465
1770950706987762700,20.9187626953125,1.4597731828689575,-9.209088325500488,3.0384416580200195
1770950707006730000,20.93772998046875,1.477504849433899,-9.265068054199219,2.854095220565796
1770950707025697500,20.956697509765625,1.4750443696975708,-9.289629936218262,2.7744221687316895
1770950707044665000,20.9756650390625,1.4036978483200073,-9.307110786437988,2.752765417098999
1770950707063632400,20.99463232421875,1.2304913997650146,-9.321784019470215,2.7857913970947266
1770950707082600000,21.013599853515625,1.0370538234710693,-9.330511093139648,2.834864854812622
1770950707101567200,21.032567138671876,0.8874948620796204,-9.321642875671387,2.9137120246887207
1770950707120534800,21.05153466796875,0.7676190733909607,-9.30255126953125,3.0072736740112305
1770950707139502000,21.070502197265625,0.656616747379303,-9.281614303588867,3.096914291381836
1770950707158469600,21.0894697265625,0.5575706362724304,-9.261812210083008,3.1746392250061035
1770950707177437000,21.10843701171875,0.4728240668773651,-9.243566513061523,3.240879774093628
1770950707196404500,21.127404541015625,0.4017208218574524,-9.228398323059082,3.293278932571411
1770950707215371800,21.146371826171876,0.34732767939567566,-9.215568542480469,3.33512544631958
1770950707234339300,21.16533935546875,0.3069411516189575,-9.205238342285156,3.367455244064331
1770950707253306600,21.184306640625,0.279562383890152,-9.198055267333984,3.3893983364105225
1770950707272274200,21.203274169921876,0.2778850495815277,-9.190546989440918,3.4098405838012695
1770950707291241500,21.222241455078127,0.35197001695632935,-9.179625511169434,3.432342767715454
1770950707310209000,21.241208984375,0.4989609122276306,-9.165523529052734,3.4517533779144287
1770950707329176300,21.26017626953125,0.6536561250686646,-9.147703170776367,3.4731338024139404
1770950707348143900,21.279143798828127,0.7861219048500061,-9.127899169921875,3.4976930618286133
1770950707367111200,21.298111083984374,0.8814072608947754,-9.112318992614746,3.5155580043792725
1770950707386078700,21.31707861328125,0.9375259876251221,-9.105060577392578,3.519841432571411
1770950707405046000,21.3360458984375,0.9732875227928162,-9.107503890991211,3.5037803649902344
1770950707424013600,21.355013671875,1.0142037868499756,-9.123845100402832,3.44923734664917
1770950707442980900,21.37398095703125,1.053961157798767,-9.144529342651367,3.381882667541504
1770950707461948400,21.392948486328127,1.0820658206939697,-9.161421775817871,3.326840877532959
1770950707480916000,21.411916015625,1.1439197063446045,-9.158792495727539,3.3133606910705566
1770950707499883300,21.43088330078125,1.300735592842102,-9.119531631469727,3.3634257316589355
1770950707518850800,21.449850830078127,1.561867356300354,-9.05078125,3.43719482421875
1770950707537818000,21.468818115234374,1.9097111225128174,-8.97134780883789,3.46962833404541
1770950707556785700,21.48778564453125,2.3130812644958496,-8.90031909942627,3.4065182209014893
1770950707575753000,21.5067529296875,2.747797727584839,-8.827108383178711,3.2714157104492188
1770950707594720300,21.52572021484375,3.2149507999420166,-8.718387603759766,3.134357213973999
1770950707613687800,21.544687744140624,3.6742970943450928,-8.569215774536133,3.039484739303589
1770950707632655400,21.5636552734375,4.048771381378174,-8.428343772888184,2.956493377685547
1770950707651622700,21.58262255859375,4.338893890380859,-8.353006362915039,2.751666307449341
1770950707670590000,21.60158984375,4.571031093597412,-8.299590110778809,2.528409004211426
1770950707689557500,21.6205576171875,4.743415832519531,-8.256593704223633,2.345008134841919
1770950707708524800,21.63952490234375,4.843774318695068,-8.2418212890625,2.186460256576538
1770950707727492400,21.658492431640624,4.911101341247559,-8.247605323791504,2.007107734680176
1770950707746459600,21.677459716796875,4.924667835235596,-8.281767845153809,1.824925184249878
1770950707765427200,21.69642724609375,4.883178234100342,-8.332443237304688,1.7015737295150757
1770950707784394500,21.71539453125,4.828857421875,-8.370234489440918,1.670843482017517
1770950707803362000,21.734362060546875,4.774615287780762,-8.38793659210205,1.736653447151184
1770950707822329300,21.753329345703126,4.714559555053711,-8.393424987792969,1.8691530227661133
1770950707841297000,21.772296875,4.651301383972168,-8.3897705078125,2.0365471839904785
1770950707860264200,21.79126416015625,4.566030025482178,-8.392067909240723,2.212453842163086
1770950707879231700,21.810231689453126,4.442495822906494,-8.415909767150879,2.367924690246582
1770950707898199000,21.829198974609376,4.287215709686279,-8.459782600402832,2.494443416595459
1770950707917166600,21.84816650390625,4.090625762939453,-8.517292976379395,2.625429391860962
1770950707936134000,21.8671337890625,3.8355486392974854,-8.585715293884277,2.782883644104004
1770950707955101200,21.88610107421875,3.5165064334869385,-8.655510902404785,2.981057643890381
1770950707974068700,21.90506884765625,3.1953766345977783,-8.70075798034668,3.202620029449463
1770950707993036000,21.9240361328125,2.9542508125305176,-8.719897270202637,3.377305507659912
1770950708012003600,21.943003662109376,2.758563995361328,-8.73737621307373,3.4955661296844482
1770950708030971000,21.961970947265623,2.5201539993286133,-8.7764310836792,3.576794147491455
1770950708049938400,21.9809384765625,2.2291176319122314,-8.840473175048828,3.612128496170044
1770950708068905700,21.99990576171875,1.9265447854995728,-8.91584300994873,3.6009135246276855
1770950708087873000,22.018873046875,1.654180884361267,-8.9910249710083,3.5490200519561768
1770950708106840600,22.037840576171874,1.4706151485443115,-9.044637680053711,3.493166208267212
1770950708125807900,22.056807861328124,1.366775631904602,-9.071918487548828,3.4644763469696045
1770950708144775400,22.075775390625,1.3058292865753174,-9.083795547485352,3.4568557739257812
1770950708163742700,22.09474267578125,1.2475405931472778,-9.095378875732422,3.447915554046631
1770950708182710300,22.113710205078124,1.259817361831665,-9.09691047668457,3.4393980503082275
1770950708201677600,22.132677490234375,1.2329424619674683,-9.088419914245605,3.4714341163635254
1770950708220645000,22.15164501953125,1.1998955011367798,-9.075769424438477,3.5158298015594482
1770950708239612400,22.1706123046875,1.2931914329528809,-9.052902221679688,3.5416111946105957
1770950708258579700,22.189579833984375,1.2470406293869019,-9.086350440979004,3.4718167781829834
1770950708277547300,22.20854736328125,1.0823804140090942,-9.195704460144043,3.2307682037353516
1770950708296514600,22.2275146484375,1.1849886178970337,-9.263891220092773,2.9910709857940674
1770950708315482000,22.246482177734375,1.2368625402450562,-9.274906158447266,2.9354183673858643
1770950708334449400,22.265449462890626,1.2593824863433838,-9.26278305053711,2.9639828205108643
1770950708353417000,22.2844169921875,1.1699119806289673,-9.253273963928223,3.029625177383423
1770950708372384300,22.30338427734375,0.9739201664924622,-9.249627113342285,3.1090621948242188
1770950708391351600,22.3223515625,0.7553339600563049,-9.245193481445312,3.182178497314453
1770950708410319000,22.341319091796876,0.5653577446937561,-9.239448547363281,3.2378017902374268
1770950708429286400,22.360286376953123,0.4012570083141327,-9.237262725830078,3.268385648727417
1770950708448254000,22.37925390625,0.24043786525726318,-9.238982200622559,3.279296875
1770950708467221200,22.39822119140625,0.09448199719190598,-9.23215103149414,3.3058793544769287
1770950708486188500,22.4171884765625,-0.01783696562051773,-9.209295272827148,3.3703038692474365
1770950708505156000,22.436156005859374,-0.07390686124563217,-9.175361633300781,3.4608733654022217
1770950708524123400,22.455123291015624,-0.0905301570892334,-9.14134407043457,3.5493695735931396
1770950708543090700,22.474090576171875,-0.07380601763725281,-9.112832069396973,3.622324228286743
1770950708562058200,22.493058349609374,-0.038048818707466125,-9.09457778930664,3.668457508087158
1770950708581025500,22.512025634765624,0.004562214016914368,-9.088312149047852,3.684147357940674
1770950708599993000,22.5309931640625,0.08435658365488052,-9.092556953430176,3.6726937294006348
1770950708618960400,22.54996044921875,0.21533481776714325,-9.104402542114258,3.637836217880249
1770950708637927700,22.568927734375,0.38192445039749146,-9.11929702758789,3.5864925384521484
1770950708656895200,22.587895263671875,0.5527458190917969,-9.130922317504883,3.5342767238616943
1770950708675862500,22.606862548828126,0.7080065608024597,-9.132885932922363,3.501356840133667
1770950708694830000,22.625830078125,0.8415464162826538,-9.120294570922852,3.5046284198760986
1770950708713797400,22.64479736328125,0.9099878072738647,-9.105326652526855,3.5263781547546387
1770950708732764700,22.6637646484375,0.9250988364219666,-9.10398006439209,3.525921106338501
1770950708751732200,22.682732177734376,0.9770503640174866,-9.103533744812012,3.5130374431610107
1770950708770699500,22.701699462890623,1.098393201828003,-9.090235710144043,3.511626958847046
1770950708789667000,22.7206669921875,1.3134502172470093,-9.06248950958252,3.5094895362854004
1770950708808634400,22.73963427734375,1.699407935142517,-9.011408805847168,3.475186347961426
1770950708827601700,22.7586015625,2.219485282897949,-8.947505950927734,3.3446099758148193
1770950708846569200,22.7775693359375,2.7650389671325684,-8.877554893493652,3.116722583770752
1770950708865536500,22.79653662109375,3.2873363494873047,-8.786252975463867,2.8575425148010254
1770950708884503800,22.81550390625,3.7720580101013184,-8.671008110046387,2.5991504192352295
1770950708903471400,22.834471435546874,4.153832912445068,-8.57500171661377,2.3206496238708496
1770950708922438700,22.853438720703124,4.507665157318115,-8.4737548828125,2.0116724967956543
1770950708941406000,22.872406005859375,4.7993340492248535,-8.38248348236084,1.6943247318267822
1770950708960373500,22.89137353515625,4.954456806182861,-8.337940216064453,1.4499969482421875
1770950708979340800,22.9103408203125,5.037659168243408,-8.310808181762695,1.3125733137130737
1770950708998308000,22.92930810546875,5.083744049072266,-8.295110702514648,1.2317026853561401
1770950709017275600,22.948275634765626,5.078958988189697,-8.307035446166992,1.1694974899291992
1770950709036243000,22.967242919921876,5.036206245422363,-8.335290908813477,1.15322744846344
1770950709055210500,22.98621044921875,4.9744696617126465,-8.366257667541504,1.1961419582366943
1770950709074177800,23.005177734375,4.914668083190918,-8.386968612670898,1.2942891120910645
1770950709093145000,23.02414501953125,4.843770503997803,-8.403801918029785,1.443747639656067
1770950709112112600,23.043112548828127,4.751514434814453,-8.421854019165039,1.6327521800994873
1770950709131080000,23.062079833984374,4.620967388153076,-8.450693130493164,1.8446768522262573
1770950709150047200,23.081047119140624,4.444846153259277,-8.49379825592041,2.066181182861328
1770950709169014800,23.100014892578123,4.231349945068359,-8.550811767578125,2.269291639328003
1770950709187982000,23.118982177734374,3.984354257583618,-8.615559577941895,2.4632198810577393
1770950709206949400,23.137949462890624,3.696225643157959,-8.680234909057617,2.676158905029297
1770950709225916700,23.156916748046875,3.383979320526123,-8.731069564819336,2.9133317470550537
1770950709244884200,23.17588427734375,3.090986967086792,-8.767974853515625,3.1207022666931152
1770950709263851500,23.1948515625,2.8228936195373535,-8.804436683654785,3.2685680389404297
1770950709282819000,23.213819091796875,2.5193166732788086,-8.861089706420898,3.3622219562530518
1770950709301786400,23.232786376953126,2.1787242889404297,-8.93492317199707,3.404512643814087
1770950709320753700,23.251753662109376,1.8881139755249023,-9.004622459411621,3.394437313079834
1770950709339721200,23.27072119140625,1.7027058601379395,-9.055081367492676,3.3580784797668457
1770950709358688500,23.2896884765625,1.578445553779602,-9.081374168395996,3.347766637802124
1770950709377655800,23.30865576171875,1.4747869968414307,-9.095296859741211,3.3572263717651367
1770950709396623400,23.327623291015627,1.416351318359375,-9.106193542480469,3.3528473377227783
1770950709415590700,23.346590576171874,1.4649540185928345,-9.111313819885254,3.3178701400756836
1770950709434558000,23.365557861328124,1.395653486251831,-9.116413116455078,3.3337008953094482
1770950709453525200,23.384525146484375,1.2488915920257568,-9.122345924377441,3.375422239303589
1770950709472492800,23.403492919921874,1.4205245971679688,-9.093989372253418,3.384059429168701
1770950709491460000,23.422460205078124,1.4691509008407593,-9.099621772766113,3.3479650020599365
1770950709510427400,23.441427490234375,1.1184804439544678,-9.176867485046387,3.2717719078063965
1770950709529395000,23.46039501953125,1.2093077898025513,-9.221566200256348,3.109772205352783
1770950709548362200,23.4793623046875,1.2886000871658325,-9.235482215881348,3.03574800491333
1770950709567329500,23.49832958984375,1.2356597185134888,-9.239242553710938,3.0462989807128906
1770950709586296800,23.517296875,1.145735263824463,-9.245026588439941,3.063845634460449
1770950709605264400,23.536264404296876,0.9853354096412659,-9.247820854187012,3.110837459564209
1770950709624231700,23.555231689453127,0.7579110264778137,-9.247641563415527,3.1744420528411865
1770950709643199000,23.574198974609374,0.5455532670021057,-9.24328327178955,3.230243682861328
1770950709662166500,23.59316650390625,0.4021390378475189,-9.238155364990234,3.2657554149627686
1770950709681133800,23.6121337890625,0.3044580817222595,-9.234458923339844,3.2867095470428467
1770950709700101000,23.63110107421875,0.20792724192142487,-9.229656219482422,3.307657241821289
1770950709719068700,23.650068603515624,0.11348405480384827,-9.21583080291748,3.350517749786377
1770950709738036000,23.669035888671875,0.056494589895009995,-9.192939758300781,3.4142448902130127
1770950709757003300,23.688003173828125,0.04843372479081154,-9.163396835327148,3.4928760528564453
1770950709775970600,23.706970458984376,0.044765982776880264,-9.131144523620605,3.5763912200927734
1770950709794938000,23.725938232421875,0.012431773357093334,-9.1024169921875,3.649139881134033
1770950709813905400,23.744905517578125,-0.03494798392057419,-9.080998420715332,3.7019765377044678
1770950709832872700,23.763872802734376,-0.016972294077277184,-9.07673168182373,3.712552547454834
1770950709851840300,23.78284033203125,0.08927544206380844,-9.087327003479004,3.685499906539917
1770950709870807600,23.8018076171875,0.21983925998210907,-9.102222442626953,3.643019676208496
1770950709889774800,23.82077490234375,0.3486916720867157,-9.116960525512695,3.5958080291748047
1770950709908742100,23.8397421875,0.46892237663269043,-9.120781898498535,3.572374105453491
1770950709927709700,23.858709716796874,0.5596494674682617,-9.12031364440918,3.560483932495117
1770950709946677000,23.877677001953124,0.6191132068634033,-9.117791175842285,3.5571036338806152
1770950709965644300,23.896644287109375,0.6866288185119629,-9.106157302856445,3.5744714736938477
1770950709984611600,23.915611572265625,0.7992926836013794,-9.074057579040527,3.6322171688079834
1770950710003579100,23.9345791015625,1.016582727432251,-9.020347595214844,3.710831642150879
1770950710022546400,23.95354638671875,1.4134366512298584,-8.960596084594727,3.725628137588501
1770950710041513700,23.972513671875,1.9273498058319092,-8.910505294799805,3.6136703491210938
1770950710060481000,23.99148095703125,2.4524056911468506,-8.853291511535645,3.4315185546875
1770950710079448600,24.010448486328126,2.9458186626434326,-8.76223087310791,3.2735085487365723
1770950710098415900,24.029415771484373,3.4174671173095703,-8.626932144165039,3.1729094982147217
1770950710117383200,24.048383056640624,3.8052453994750977,-8.503829956054688,3.061920642852783
1770950710136350700,24.067350830078126,4.136385917663574,-8.438400268554688,2.802515745162964
1770950710155318000,24.086318115234373,4.400397777557373,-8.427385330200195,2.405423879623413
1770950710174285300,24.105285400390624,4.551712989807129,-8.432321548461914,2.0852468013763428
1770950710193252600,24.124252685546875,4.65293550491333,-8.425522804260254,1.8791284561157227
1770950710212220000,24.143219970703125,4.706385612487793,-8.424586296081543,1.7454699277877808
1770950710231187500,24.1621875,4.6763715744018555,-8.45875358581543,1.6587414741516113
1770950710250154800,24.18115478515625,4.566400527954102,-8.529011726379395,1.604475498199463
1770950710269122000,24.2001220703125,4.396541595458984,-8.621185302734375,1.5861822366714478
1770950710288089300,24.21908935546875,4.177260398864746,-8.723082542419434,1.6213326454162598
1770950710307057000,24.238056884765626,3.9113874435424805,-8.829828262329102,1.70457124710083
1770950710326024200,24.257024169921873,3.6117501258850098,-8.924016952514648,1.8675035238265991
1770950710344991500,24.275991455078124,3.324042797088623,-8.987813949584961,2.083345651626587
1770950710363958800,24.294958740234375,3.027493715286255,-9.018823623657227,2.3802297115325928
1770950710382926300,24.31392626953125,2.7132279872894287,-9.030224800109863,2.695147752761841
1770950710401893600,24.3328935546875,2.3746979236602783,-9.029557228088379,2.999715566635132
1770950710420861000,24.35186083984375,1.9804731607437134,-9.025094985961914,3.2856950759887695
1770950710439828200,24.370828125,1.6030303239822388,-9.025362968444824,3.4847514629364014
1770950710458795500,24.38979541015625,1.2761086225509644,-9.036236763000488,3.590035915374756
1770950710477763000,24.40876318359375,1.0328587293624878,-9.086955070495605,3.5398898124694824
1770950710496730400,24.42773046875,0.8976939916610718,-9.152976989746094,3.404048442840576
1770950710515697700,24.44669775390625,0.8790139555931091,-9.201751708984375,3.2749791145324707
1770950710534665000,24.4656650390625,0.9303359389305115,-9.23223876953125,3.1734249591827393
