time,seconds_elapsed,z,y,x
1770950686249341200,0.180341064453125,-0.36651885509490967,0.2516762912273407,-0.15210533142089844
1770950686268308200,0.19930810546875,-0.40317076444625854,0.20158538222312927,-0.15027274191379547
1770950686287275300,0.218275146484375,-0.536339282989502,0.08429934084415436,-0.1496618688106537
1770950686306242300,0.2372421875,-0.6365211009979248,0.03481929376721382,-0.0513126403093338
1770950686325209300,0.256209228515625,-0.6707295179367065,-0.006108647678047419,0.1282816082239151
1770950686344176400,0.27517626953125,-0.6640099883079529,0.001832594396546483,0.25350889563560486
1770950686363143400,0.294143310546875,-0.6322450637817383,0.05925388261675835,0.21807873249053955
1770950686382110500,0.3131103515625,-0.6139190793037415,0.04764745384454727,0.04459312930703163
1770950686401077500,0.332077392578125,-0.5876519083976746,0.1178968995809555,-0.029932374134659767
1770950686420044500,0.35104443359375,-0.5607738494873047,0.37140578031539917,-0.08857539296150208
1770950686439011600,0.370011474609375,-0.5430588126182556,0.6114756464958191,-0.27977606654167175
1770950686457978600,0.388978515625,-0.48563748598098755,0.6835576891899109,-0.48075059056282043
1770950686476945700,0.407945556640625,-0.337808221578598,0.573602020740509,-0.5418370366096497
1770950686495912700,0.42691259765625,-0.1802051067352295,0.268169641494751,-0.4263836145401001
1770950686514880000,0.4458798828125,-0.13439024984836578,-0.040317077189683914,-0.1594357043504715
1770950686533847000,0.464846923828125,-0.16310089826583862,-0.14294235408306122,0.2254091054201126
1770950686552814000,0.48381396484375,-0.22235478460788727,-0.17592905461788177,0.411722868680954
1770950686571781000,0.502781005859375,-0.2522871494293213,-0.2467893660068512,0.13927717506885529
1770950686590748200,0.521748046875,-0.19792018830776215,-0.20708316564559937,-0.4105011224746704
1770950686609715200,0.540715087890625,0.04886918142437935,-0.10629047453403473,-0.7953459620475769
1770950686628682200,0.55968212890625,0.4667007029056549,-0.07086031138896942,-0.637742817401886
1770950686647649300,0.578649169921875,0.8283326625823975,0.13439024984836578,-0.12950333952903748
1770950686666616300,0.5976162109375,0.8875865340232849,0.006108647678047419,0.24434591829776764
1770950686685583400,0.616583251953125,0.6847794055938721,-0.48075059056282043,0.24862197041511536
1770950686704550400,0.63555029296875,0.389120876789093,-0.9138537049293518,0.0054977829568088055
1770950686723517400,0.654517333984375,0.3182605504989624,-0.9474512934684753,-0.21319180727005005
1770950686742484500,0.673484375,0.42943793535232544,-0.7971785664558411,-0.23884813487529755
1770950686761451500,0.692451416015625,0.5528326034545898,-0.5216785073280334,-0.001832594396546483
1770950686780418600,0.71141845703125,0.5974257588386536,-0.20830489695072174,0.2522871494293213
1770950686799385600,0.730385498046875,0.5681042671203613,-0.18570289015769958,0.2993237376213074
1770950686818352600,0.7493525390625,0.4508182108402252,-0.7757982611656189,0.2926042377948761
1770950686837319700,0.768319580078125,0.3811796307563782,-1.3921607732772827,0.40866854786872864
1770950686856287000,0.787286865234375,0.32192572951316833,-1.0586286783218384,0.44837474822998047
1770950686875254000,0.80625390625,0.15271618962287903,-0.3500255048274994,0.17531819641590118
1770950686894221000,0.825220947265625,-0.14110976457595825,-0.4416552484035492,-0.3231474757194519
1770950686913188000,0.84418798828125,-0.2834412455558777,-0.9755510687828064,-0.5998691916465759
1770950686932155100,0.863155029296875,-0.01954767294228077,-1.1997383832931519,-0.4001164436340332
1770950686951122200,0.8821220703125,0.3500255048274994,-1.4080432653427124,-0.020158538594841957
1770950686970089200,0.901089111328125,0.5662716627120972,-1.4923427104949951,0.2919933497905731
1770950686989056300,0.92005615234375,0.5601630210876465,-1.2907572984695435,0.48502662777900696
1770950687008023300,0.939023193359375,0.40255987644195557,-1.2486076354980469,0.5137372612953186
1770950687026990300,0.957990234375,0.05742128938436508,-1.0690133571624756,0.34697118401527405
1770950687045957400,0.976957275390625,-0.13927717506885529,-0.6695078015327454,0.13072505593299866
1770950687064924400,0.99592431640625,-0.12278381735086441,-0.4508182108402252,-0.16859868168830872
1770950687083891500,1.014891357421875,-0.11423171311616898,-0.4050033390522003,-0.24373504519462585
1770950687102858500,1.0338583984375,-0.05925388261675835,-0.42882707715034485,-0.05192350596189499
1770950687121825500,1.052825439453125,-0.05742128938436508,-0.45509424805641174,0.05497783049941063
1770950687140792800,1.071792724609375,-0.12034036219120026,-0.5100721120834351,0.07513637095689774
1770950687159760000,1.090759765625,-0.21380266547203064,-0.5180133581161499,0.029932374134659767
1770950687178726700,1.1097265625,-0.15638138353824615,-0.4214966893196106,-0.18631376326084137
1770950687197694000,1.12869384765625,0.011606430634856224,-0.1740964651107788,-0.5161807537078857
1770950687216661000,1.147660888671875,-0.009162971749901772,0.20769402384757996,-0.6401863098144531
1770950687235628000,1.1666279296875,-0.09712749719619751,0.4043924808502197,-0.38301220536231995
1770950687254595000,1.185594970703125,-0.13194678723812103,0.3390299379825592,-0.06719512492418289
1770950687273562000,1.20456201171875,-0.12400554865598679,0.10140355676412582,0.06475166976451874
1770950687292529200,1.223529052734375,-0.20219624042510986,-0.04886918142437935,0.01282816007733345
1770950687311496200,1.24249609375,-0.22907429933547974,0.010384701192378998,-0.05925388261675835
1770950687330463200,1.261463134765625,-0.20830489695072174,0.18753549456596375,-0.0054977829568088055
1770950687349430300,1.28043017578125,-0.24923282861709595,0.40805765986442566,0.18814635276794434
1770950687368397300,1.299397216796875,-0.32681265473365784,0.5815432667732239,0.3298669755458832
1770950687387364400,1.3183642578125,-0.3909534513950348,0.5112938284873962,0.32192572951316833
1770950687406331600,1.33733154296875,-0.4263836145401001,0.4276053309440613,0.22724169492721558
1770950687425298400,1.35629833984375,-0.4221075773239136,0.3634645342826843,0.164322629570961
1770950687444265700,1.375265625,-0.3915643095970154,0.3646862804889679,0.2315177470445633
1770950687463232800,1.394232666015625,-0.39400777220726013,0.3897317349910736,0.33536475896835327
1770950687482199800,1.41319970703125,-0.4111120104789734,0.47586366534233093,0.4269944727420807
1770950687501166800,1.432166748046875,-0.4355465769767761,0.46914416551589966,0.46914416551589966
1770950687520134000,1.4511337890625,-0.4257727563381195,0.411722868680954,0.4007273018360138
1770950687539101000,1.470100830078125,-0.3249800503253937,0.4202749729156494,0.2987128794193268
1770950687558068000,1.48906787109375,-0.22296564280986786,0.4618137776851654,0.22846342623233795
1770950687577035000,1.508034912109375,-0.08918625861406326,0.4819723069667816,0.11178825795650482
1770950687596002300,1.527002197265625,0.06230820715427399,0.5705476999282837,0.04825831577181816
1770950687614969300,1.54596923828125,0.10140355676412582,0.5430588126182556,0.08552107214927673
1770950687633936100,1.56493603515625,0.14599667489528656,0.3811796307563782,0.1533270627260208
1770950687652903400,1.5839033203125,0.258395791053772,0.31459537148475647,0.17898337543010712
1770950687671870500,1.602870361328125,0.3017672002315521,0.07452550530433655,0.0030543238390237093
1770950687690837500,1.62183740234375,0.2364046722650528,-0.16126830875873566,-0.33231043815612793
1770950687709804500,1.640804443359375,0.27550002932548523,-0.14660754799842834,-0.5760455131530762
1770950687728771600,1.659771484375,0.46975502371788025,0.3023780584335327,-0.41355544328689575
1770950687747738600,1.678738525390625,0.7043271064758301,0.6304124593734741,-0.06108647957444191
1770950687766705700,1.69770556640625,0.7483093738555908,0.205861434340477,0.143553227186203
1770950687785672700,1.716672607421875,0.647516667842865,-0.42882707715034485,0.18692462146282196
1770950687804640000,1.735639892578125,0.7385355234146118,-0.7819069027900696,0.14538581669330597
1770950687823607000,1.75460693359375,0.8497129082679749,-0.6255255341529846,0.13133592903614044
1770950687842574000,1.773573974609375,0.851545512676239,-0.29565855860710144,0.17776164412498474
1770950687861541000,1.792541015625,0.7794634699821472,-0.000610864779446274,0.2614501118659973
1770950687880508200,1.811508056640625,0.6695078015327454,0.004886918235570192,0.29504770040512085
1770950687899475200,1.83047509765625,0.6310232877731323,-0.08674279600381851,0.30604326725006104
1770950687918442200,1.849442138671875,0.5882627964019775,-0.08979712426662445,0.328645259141922
1770950687937409300,1.8684091796875,0.573602020740509,-0.043371398001909256,0.23396120965480804
1770950687956376600,1.88737646484375,0.6218603253364563,0.0360410213470459,0.1178968995809555
1770950687975343600,1.906343505859375,0.6236929297447205,-0.0030543238390237093,0.09101885557174683
1770950687994310700,1.925310546875,0.5302306413650513,-0.23762640357017517,0.10445787757635117
1770950688013277700,1.944277587890625,0.4428769648075104,-0.4001164436340332,0.10934479534626007
1770950688032244700,1.96324462890625,0.3958403766155243,-0.4214966893196106,0.12095122784376144
1770950688051211800,1.982211669921875,0.3646862804889679,-0.3170388340950012,0.16615521907806396
1770950688070179000,2.001178955078125,0.3029889166355133,-0.17715078592300415,0.17531819641590118
1770950688089146000,2.02014599609375,0.235793799161911,-0.001221729558892548,0.1337793916463852
1770950688108113200,2.039113037109375,0.15149445831775665,0.1905898153781891,0.020158538594841957
1770950688127080200,2.058080078125,0.0054977829568088055,0.2009745091199875,-0.09529490768909454
1770950688146047200,2.077047119140625,-0.12278381735086441,0.10629047453403473,-0.18814635276794434
1770950688165014300,2.09601416015625,-0.18387030065059662,0.10690133273601532,-0.2565632164478302
1770950688183981600,2.114981689453125,-0.17715078592300415,0.06414080411195755,-0.36651885509490967
1770950688202948600,2.133948486328125,-0.22235478460788727,-0.09285144507884979,-0.4355465769767761
1770950688221915600,2.15291552734375,-0.25534147024154663,-0.17165300250053406,-0.4776962697505951
1770950688240882700,2.171882568359375,-0.2412915825843811,-0.08979712426662445,-0.6169734001159668
1770950688259849700,2.190849609375,-0.23273947834968567,-0.011606430634856224,-0.8484911918640137
1770950688278816800,2.209816650390625,-0.16065743565559387,0.16859868168830872,-0.8869756460189819
1770950688297784000,2.2287841796875,-0.1185077652335167,0.29504770040512085,-0.5522217750549316
1770950688316751000,2.247751220703125,-0.09712749719619751,0.16065743565559387,-0.031154103577136993
1770950688335718100,2.26671826171875,-0.07513637095689774,-0.040317077189683914,0.27488914132118225
1770950688354685200,2.285685302734375,-0.09162971377372742,-0.0616973415017128,0.277332603931427
1770950688373652200,2.30465234375,-0.1649334877729416,0.018325943499803543,0.049480047076940536
1770950688392619300,2.323619384765625,-0.2877173125743866,0.12583814561367035,-0.17165300250053406
1770950688411586600,2.342586669921875,-0.4007273018360138,0.13439024984836578,-0.18081597983837128
1770950688430553600,2.3615537109375,-0.43371400237083435,0.11056652665138245,0.017715077847242355
1770950688449520600,2.380520751953125,-0.4477638900279999,0.07330377399921417,0.20952661335468292
1770950688468488000,2.399488037109375,-0.49602219462394714,0.11178825795650482,0.2406807243824005
1770950688487455000,2.418455078125,-0.5345066785812378,0.19853104650974274,0.1533270627260208
1770950688506422000,2.437422119140625,-0.5290089249610901,0.30054548382759094,0.06291907280683517
1770950688525389000,2.45638916015625,-0.5241219997406006,0.3347539007663727,0.036651886999607086
1770950688544356000,2.475356201171875,-0.526565432548523,0.3090975880622864,0.11056652665138245
1770950688563323100,2.4943232421875,-0.5021308660507202,0.2968802750110626,0.20463970303535461
1770950688582290400,2.51329052734375,-0.4874700903892517,0.2577849328517914,0.235793799161911
1770950688601257500,2.532257568359375,-0.44837474822998047,0.30115634202957153,0.1533270627260208
1770950688620224500,2.551224609375,-0.3903425931930542,0.41416633129119873,0.029932374134659767
1770950688639191600,2.570191650390625,-0.29626941680908203,0.5375609993934631,-0.036651886999607086
1770950688658158800,2.589158935546875,-0.17715078592300415,0.4935787320137024,0.030543239787220955
1770950688677126000,2.6081259765625,-0.06597339361906052,0.3451386094093323,0.1588248461484909
1770950688696093000,2.627093017578125,0,0.15760311484336853,0.2461785078048706
1770950688715060200,2.646060302734375,0.020769402384757996,0.06841685622930527,0.22235478460788727
1770950688734027300,2.66502734375,0.037262752652168274,0.07147117704153061,0.049480047076940536
1770950688752994300,2.683994384765625,0.03481929376721382,0.039706211537122726,-0.23335035145282745
1770950688771961300,2.70296142578125,0.027488915249705315,0.22846342623233795,-0.4984656572341919
1770950688790928600,2.7219287109375,0.09285144507884979,0.46547895669937134,-0.6560688018798828
1770950688809895700,2.740895751953125,0.25900667905807495,0.7721330523490906,-0.4789179861545563
1770950688828862700,2.75986279296875,0.4886918365955353,0.9999856352806091,-0.04153880476951599
1770950688847830000,2.778830078125,0.6090322136878967,0.6921098232269287,0.23762640357017517
1770950688866797000,2.797797119140625,0.6053670048713684,0.03481929376721382,0.2663370370864868
1770950688885764000,2.81676416015625,0.5839866995811462,-0.35735589265823364,0.18081597983837128
1770950688904731100,2.835731201171875,0.6249146461486816,-0.2107483446598053,0.01588248461484909
1770950688923698400,2.854698486328125,0.6444623470306396,0.05925388261675835,-0.17715078592300415
1770950688942665500,2.87366552734375,0.5308414697647095,0.25350889563560486,-0.2571740746498108
1770950688961632500,2.892632568359375,0.3738492429256439,0.3078758418560028,-0.2724456787109375
1770950688980599800,2.911599853515625,0.34086254239082336,0.36712974309921265,-0.30115634202957153
1770950688999566800,2.93056689453125,0.389120876789093,0.43982264399528503,-0.40317076444625854
1770950689018534000,2.949533935546875,0.47586366534233093,0.3756818473339081,-0.5277871489524841
1770950689037501000,2.9685009765625,0.536339282989502,0.08979712426662445,-0.5809323787689209
1770950689056468200,2.98746826171875,0.30543237924575806,-0.1178968995809555,-0.35185810923576355
1770950689075435300,3.006435302734375,0.2730565667152405,-0.4984656572341919,-0.01588248461484909
1770950689094402300,3.02540234375,0.2101374864578247,-0.5980366468429565,0.19669845700263977
1770950689113369600,3.04436962890625,0.21441353857517242,-0.4770853817462921,0.3695732057094574
1770950689132336600,3.063336669921875,0.28527384996414185,-0.24984370172023773,0.5112938284873962
1770950689151303700,3.0823037109375,0.26878049969673157,-0.03543015569448471,0.5198459029197693
1770950689170270700,3.101270751953125,0.22418737411499023,0.036651886999607086,0.5119046568870544
1770950689189238000,3.120238037109375,0.20280711352825165,-0.025045456364750862,0.5516108870506287
1770950689208205000,3.139205078125,0.12034036219120026,-0.17776164412498474,0.5760455131530762
1770950689227172400,3.15817236328125,-0.02932151034474373,-0.3390299379825592,0.4526508152484894
1770950689246139400,3.177139404296875,-0.2412915825843811,-0.5406153202056885,0.25350889563560486
1770950689265106700,3.196106689453125,-0.3738492429256439,-0.6352993845939636,0.12950333952903748
1770950689284073700,3.21507373046875,-0.43493571877479553,-0.49602219462394714,-0.03237583488225937
1770950689303040800,3.234040771484375,-0.43493571877479553,-0.23884813487529755,-0.19120067358016968
1770950689322007800,3.2530078125,-0.40866854786872864,0.03298669680953026,-0.2718348205089569
1770950689340975000,3.27197509765625,-0.4062250852584839,0.21441353857517242,-0.35063639283180237
1770950689359942100,3.290942138671875,-0.3756818473339081,0.17837251722812653,-0.5155698657035828
1770950689378909400,3.309909423828125,-0.3237583339214325,0.14721840620040894,-0.5803215503692627
1770950689397876500,3.32887646484375,-0.2467893660068512,0.17287473380565643,-0.2809978127479553
1770950689416843500,3.347843505859375,-0.20280711352825165,0.1288924664258957,0.13072505593299866
1770950689435810800,3.366810791015625,-0.21868959069252014,-0.021380268037319183,0.3738492429256439
1770950689454777900,3.38577783203125,-0.20219624042510986,-0.10079269111156464,0.3854556679725647
1770950689473745000,3.404744873046875,-0.19242240488529205,-0.06597339361906052,0.235793799161911
1770950689492712200,3.423712158203125,-0.23518294095993042,-0.012217295356094837,0.020158538594841957
1770950689511679200,3.44267919921875,-0.318871408700943,-0.01954767294228077,-0.08796452730894089
1770950689530646500,3.461646484375,-0.40317076444625854,-0.07391463965177536,-0.010384701192378998
1770950689549613600,3.480613525390625,-0.46425724029541016,-0.11972949653863907,0.10201441496610641
1770950689568580600,3.49958056640625,-0.48075059056282043,-0.10018182545900345,0.143553227186203
1770950689587548000,3.5185478515625,-0.5094612240791321,-0.0922405794262886,0.1649334877729416
1770950689606515000,3.537514892578125,-0.5033525824546814,-0.12705987691879272,0.12400554865598679
1770950689625482200,3.556482177734375,-0.5277871489524841,-0.17653992772102356,0.11545344442129135
1770950689644449300,3.57544921875,-0.5564978122711182,-0.164322629570961,0.0665842592716217
1770950689663416600,3.59441650390625,-0.5754346251487732,-0.023212861269712448,-0.0256563201546669
1770950689682383600,3.613383544921875,-0.45998117327690125,0.22907429933547974,-0.11911863088607788
1770950689701350700,3.6323505859375,-0.42821621894836426,0.40744680166244507,-0.18387030065059662
1770950689720318000,3.65131787109375,-0.42394015192985535,0.4575377106666565,-0.2107483446598053
1770950689739285000,3.670284912109375,-0.3084867000579834,0.4783071279525757,-0.258395791053772
1770950689758252300,3.689252197265625,-0.11056652665138245,0.6371319890022278,-0.3396408259868622
1770950689777219300,3.70821923828125,0.06230820715427399,0.7061597108840942,-0.43860089778900146
1770950689796186600,3.7271865234375,0.31031930446624756,0.5400044918060303,-0.5626064538955688
1770950689815153700,3.746153564453125,0.5516108870506287,0.30970844626426697,-0.7318159937858582
1770950689834120700,3.76512060546875,0.7635809779167175,0.318871408700943,-0.8002328872680664
1770950689853088000,3.784087890625,0.7953459620475769,0.347582072019577,-0.9199623465538025
1770950689872055000,3.803054931640625,0.6963858604431152,0.4618137776851654,-1.2058470249176025
1770950689891022300,3.822022216796875,0.6194168925285339,0.31459537148475647,-1.5418226718902588
1770950689909989400,3.8409892578125,0.3995055556297302,0.347582072019577,-1.887572169303894
1770950689928956700,3.859956787109375,-0.1692095398902893,0.7715222239494324,-2.434296131134033
1770950689947923700,3.878923828125,0.020158538594841957,0.06719512492418289,-2.8820600509643555
1770950689966891000,3.89789111328125,0.7483093738555908,0.5497782826423645,-3.0585999488830566
1770950689985858000,3.916858154296875,1.33290696144104,1.255937933921814,-3.090975761413574
1770950690004825000,3.9358251953125,1.4495820999145508,2.008523464202881,-2.8075344562530518
1770950690023792400,3.95479248046875,1.1465932130813599,1.9022328853607178,-2.241262912750244
1770950690042759700,3.973759765625,0.7990111112594604,1.4685189723968506,-1.4422518014907837
1770950690061726700,3.992726806640625,0.573602020740509,1.1759146451950073,-0.6053670048713684
1770950690080694000,4.011694091796875,0.46608981490135193,1.201570987701416,0.07269290834665298
1770950690099661000,4.0306611328125,0.46608981490135193,1.414151906967163,0.6224712133407593
1770950690118628400,4.04962841796875,0.8313869833946228,1.533881425857544,1.1594213247299194
1770950690137595400,4.068595458984375,1.4233149290084839,1.1490366458892822,1.4343105554580688
1770950690156562700,4.087562744140625,1.5265511274337769,0.9505056142807007,0.842382550239563
1770950690175529700,4.10652978515625,1.046411395072937,1.4208714962005615,-0.06780599057674408
1770950690194496800,4.125496826171875,0.7574723362922668,1.2974767684936523,-0.30970844626426697
1770950690213464000,4.144464111328125,0.6017017960548401,0.7886264324188232,-0.2816086709499359
1770950690232431400,4.163431396484375,0.6701186895370483,0.536339282989502,0.11972949653863907
1770950690251398400,4.1823984375,0.7073814272880554,1.0891718864440918,0.6725621223449707
1770950690270365700,4.20136572265625,0.9596685767173767,2.5100433826446533,1.2815942764282227
1770950690289334300,4.220334228515625,1.4569125175476074,2.0909900665283203,0.7806851863861084
1770950690308299800,4.2392998046875,1.2284491062164307,0.8277217745780945,-0.8686497211456299
1770950690327267000,4.25826708984375,0.5601630210876465,0.7629700899124146,-2.0182971954345703
1770950690346234400,4.277234375,0.3078758418560028,1.1630865335464478,-2.268141031265259
1770950690365201400,4.296201416015625,0.001832594396546483,1.0916153192520142,-2.3738205432891846
1770950690384168700,4.315168701171875,-0.6890554428100586,1.0836740732192993,-2.268141031265259
1770950690403135700,4.3341357421875,-1.5412118434906006,0.9682206511497498,-1.8545855283737183
1770950690431586600,4.362586669921875,-2.400087833404541,0.5064069032669067,-2.1862850189208984
1770950690450553600,4.3815537109375,-2.553414821624756,0.06841685622930527,-2.4349069595336914
1770950690495573500,4.426573486328125,-2.305403709411621,-0.4569268524646759,-2.2259912490844727
1770950690514540800,4.445540771484375,-1.8619158267974854,0.6499601006507874,-3.2290313243865967
1770950690533507800,4.4645078125,-1.6994258165359497,0.8442151546478271,-3.646862745285034
1770950690552475100,4.48347509765625,-1.6200133562088013,0.7342594861984253,-2.8564038276672363
1770950690571442200,4.502442138671875,-1.29503333568573,1.110552191734314,-2.118479013442993
1770950690590409500,4.521409423828125,-0.9541707634925842,1.92666757106781,-2.003636360168457
1770950690609376500,4.54037646484375,-0.9260709881782532,2.570518970489502,-1.8936808109283447
1770950690628343800,4.55934375,-0.4862483739852905,3.089754104614258,-1.4282019138336182
1770950690647311000,4.57831103515625,0.26389357447624207,3.3402085304260254,-1.1948515176773071
1770950690666278100,4.597278076171875,0.5962040424346924,3.568671941757202,-1.0262528657913208
1770950690685245200,4.6162451171875,0.8466585874557495,3.19970965385437,-0.7220421433448792
1770950690704212500,4.63521240234375,1.1142174005508423,2.5583016872406006,-0.3640754222869873
1770950690723179800,4.6541796875,1.2705987691879272,2.576627731323242,-0.15027274191379547
1770950690751630600,4.682630615234375,1.3952151536941528,3.43672513961792,0.1331685185432434
1770950690770597600,4.70159765625,1.3194679021835327,3.050658702850342,0.36285367608070374
1770950690789565000,4.72056494140625,1.4123194217681885,2.7818782329559326,0.7379246354103088
1770950690808532000,4.739531982421875,1.3597849607467651,2.188117742538452,0.8393282294273376
1770950690827499300,4.758499267578125,1.3854413032531738,1.109330415725708,0.8148936033248901
1770950690846466300,4.77746630859375,2.1795654296875,-0.13927717506885529,0.5302306413650513
1770950690865433600,4.79643359375,2.3787074089050293,-1.0299180746078491,0.2761108875274658
1770950690884401000,4.81540087890625,3.554011344909668,-0.6841685771942139,0.4105011224746704
1770950690903368000,4.834367919921875,2.302960157394409,1.0262528657913208,0.9334014058113098
1770950690922335200,4.853335205078125,0.9053016304969788,1.5320488214492798,0.3946186602115631
1770950690941302300,4.87230224609375,0.6023126840591431,0.1185077652335167,-0.4068359434604645
1770950690960269600,4.89126953125,0.5119046568870544,-1.3842196464538574,-1.635895848274231
1770950690979236600,4.910236572265625,0.8930842876434326,-2.487441301345825,-1.1643083095550537
1770950690998204000,4.929203857421875,0.8307760953903198,-0.5998691916465759,-1.6041308641433716
1770950691017171200,4.948171142578125,-0.023212861269712448,-0.778241753578186,-1.5332705974578857
1770950691036138200,4.96713818359375,-0.8307760953903198,-0.4972439408302307,-1.4563016891479492
1770950691055105500,4.98610546875,-1.5222749710083008,-0.11484257876873016,-1.6053526401519775
1770950691074072800,5.00507275390625,-2.2345433235168457,0.16615521907806396,-1.6774346828460693
1770950691093039900,5.024039794921875,-2.5607452392578125,-0.026878049597144127,-1.3390156030654907
1770950691112007200,5.043007080078125,-2.3677117824554443,-0.6414080262184143,-0.6548470258712769
1770950691130974200,5.06197412109375,-2.157574415206909,-0.9358448386192322,-0.328645259141922
1770950691149941500,5.08094140625,-2.3872594833374023,-0.8466585874557495,-0.18692462146282196
1770950691168908800,5.09990869140625,-2.5827362537384033,-0.5937605500221252,-0.09407317638397217
1770950691187875800,5.118875732421875,-2.883281707763672,-0.3787361681461334,0.25900667905807495
1770950691206843100,5.137843017578125,-3.4074037075042725,0.22479823231697083,0.5998691916465759
1770950691225810400,5.156810546875,-3.4636032581329346,0.5668824911117554,0.14538581669330597
1770950691244777500,5.175777587890625,-2.987128734588623,0.7843503952026367,-0.42271843552589417
1770950691263744800,5.194744873046875,-2.442237377166748,1.6285655498504639,-0.8002328872680664
1770950691282711800,5.2137119140625,-2.0977096557617188,3.5088071823120117,-0.8576541543006897
1770950691301679000,5.23267919921875,-1.897346019744873,3.3878560066223145,-0.546113133430481
1770950691320646400,5.251646484375,-1.8631376028060913,3.338986873626709,-0.3042106628417969
1770950691339613400,5.270613525390625,-1.9107850790023804,2.279747247695923,-0.27000224590301514
1770950691358580700,5.289580810546875,-2.436128854751587,0.9737184643745422,-0.0256563201546669
1770950691377548000,5.308548095703125,-2.9516985416412354,-0.014660755172371864,0.5436696410179138
1770950691396515000,5.32751513671875,-3.727496862411499,-0.6536253094673157,0.8527672290802002
1770950691415482400,5.346482421875,-4.676780700683594,-2.517984628677368,0.9309579133987427
1770950691434449700,5.36544970703125,-3.9718427658081055,-2.4849979877471924,-0.9419534802436829
1770950691453416700,5.384416748046875,-3.196044445037842,-0.9932661056518555,-2.453233003616333
1770950691472384000,5.403384033203125,-2.0488405227661133,1.5027273893356323,-2.5363106727600098
1770950691491351300,5.422351318359375,-1.1337649822235107,0.33108872175216675,0.6609556674957275
1770950691510318300,5.441318359375,-0.3995055556297302,-0.6682860851287842,3.347538948059082
1770950691529285600,5.46028564453125,0.6120865345001221,-1.5968005657196045,2.375042200088501
1770950691548253000,5.4792529296875,0.6927206516265869,-1.6872085332870483,1.858250617980957
1770950691567220200,5.49822021484375,-0.15515965223312378,-0.8002328872680664,3.0103416442871094
1770950691586187300,5.517187255859375,-2.1355831623077393,1.342680811882019,2.9126033782958984
1770950691605154600,5.536154541015625,-3.7067275047302246,3.156949281692505,2.1563527584075928
1770950691624121900,5.555121826171875,-3.2265877723693848,1.3023637533187866,1.4379756450653076
1770950691643089000,5.5740888671875,-1.9682062864303589,-0.7232639193534851,0.915075421333313
1770950691662056200,5.59305615234375,-0.6389645338058472,-0.5119046568870544,1.469740629196167
1770950691681023500,5.6120234375,0.7733548283576965,-0.36285367608070374,2.164904832839966
1770950691699990800,5.63099072265625,1.3695588111877441,-0.6194168925285339,1.8179335594177246
1770950691718957800,5.649957763671875,1.099556565284729,-0.9126319885253906,1.6859867572784424
1770950691737925000,5.668925048828125,0.9773836731910706,-1.431867003440857,1.7825034856796265
1770950691756892400,5.687892333984375,0.8747583627700806,-1.879020094871521,1.7996076345443726
1770950691775859500,5.706859375,0.6829468011856079,-1.6187916994094849,1.5418226718902588
1770950691794826800,5.72582666015625,0.411722868680954,-1.196073293685913,1.0250310897827148
1770950691813794000,5.7447939453125,0.08063415437936783,-0.833219587802887,0.1588248461484909
1770950691832761300,5.76376123046875,-0.21746785938739777,-0.7452550530433655,-0.768467903137207
1770950691851728600,5.782728759765625,-0.34086254239082336,-0.9272927641868591,-1.6004657745361328
1770950691870695700,5.80169580078125,-0.411722868680954,-1.138651967048645,-2.470337152481079
1770950691889663000,5.8206630859375,-0.6291907429695129,-1.5601485967636108,-3.1972663402557373
1770950691908630300,5.83963037109375,-1.2828160524368286,-1.1533126831054688,-2.2895212173461914
1770950691927597600,5.85859765625,-1.0238093137741089,1.7690644264221191,0.5705476999282837
1770950691946564900,5.87756494140625,0.6902772188186646,-0.9175189137458801,0.8478803038597107
1770950691965532000,5.896531982421875,1.1496474742889404,-2.2418737411499023,0.6585122346878052
1770950691984499200,5.915499267578125,0.7721330523490906,-1.1606431007385254,0.2626718580722809
1770950692003466500,5.934466552734375,-0.6511818766593933,0.18203771114349365,-0.0720820426940918
1770950692022433800,5.953433837890625,-1.3842196464538574,1.7800599336624146,-1.1362085342407227
1770950692041401000,5.972401123046875,-0.5290089249610901,3.4807074069976807,-0.8796452879905701
1770950692060368400,5.991368408203125,0.12461641430854797,1.390328288078308,-0.7806851863861084
1770950692079335400,6.01033544921875,0.04153880476951599,-0.06963858753442764,-1.3927717208862305
1770950692098302700,6.029302734375,-0.16737695038318634,0.8820887207984924,-1.7910555601119995
1770950692117270000,6.04827001953125,-0.8784235715866089,2.663370370864868,-1.5955787897109985
1770950692136237300,6.0672373046875,-1.860694169998169,3.0885322093963623,-1.0372483730316162
1770950692155204600,6.08620458984375,-2.313955783843994,1.9620976448059082,-0.4728093445301056
1770950692174172000,6.105171875,-2.35305118560791,-1.4953969717025757,-0.5583304166793823
1770950692193139200,6.12413916015625,-2.1087052822113037,-4.747641086578369,-1.0494656562805176
1770950692212106200,6.143106201171875,-1.5503748655319214,-5.071399211883545,-1.858250617980957
1770950692231073500,6.162073486328125,-0.526565432548523,-1.3267983198165894,-1.5870267152786255
1770950692250040800,6.181040771484375,0.526565432548523,1.1154390573501587,-0.720820426940918
1770950692269008100,6.200008056640625,0.720820426940918,1.5821397304534912,-0.7819069027900696
1770950692287975400,6.218975341796875,0.5900954008102417,1.3585633039474487,-0.943175196647644
1770950692306942700,6.237942626953125,0.3750709891319275,1.3585633039474487,-1.1142174005508423
1770950692325910000,6.256909912109375,0.13927717506885529,0.8979712128639221,-1.4110976457595825
1770950692354360800,6.28536083984375,-0.4630354940891266,-0.3445277214050293,-1.5723659992218018
1770950692373328100,6.304328125,-0.7660244107246399,-0.7745765447616577,-1.0848958492279053
1770950692392295400,6.32329541015625,-0.8845322132110596,-0.6084213256835938,-0.6487383842468262
1770950692411262700,6.3422626953125,-0.7977893948554993,0.08063415437936783,-0.7220421433448792
1770950692430230000,6.36122998046875,-0.6988292932510376,0.3225366175174713,-0.9639446139335632
1770950692449197300,6.380197265625,-0.5974257588386536,-0.05253437161445618,-0.647516667842865
1770950692468164600,6.39916455078125,-0.49602219462394714,-0.19792018830776215,-0.0720820426940918
1770950692487132000,6.4181318359375,-0.1893680840730667,0.17715078592300415,0.4166097939014435
1770950692506099200,6.43709912109375,0.28954991698265076,0.4667007029056549,0.3738492429256439
1770950692525066500,6.45606640625,0.5864301919937134,-0.06108647957444191,0.02932151034474373
1770950692544033800,6.47503369140625,0.6829468011856079,-0.9541707634925842,0.2260199636220932
1770950692563001000,6.4940009765625,0.8454368710517883,-0.5864301919937134,1.0262528657913208
1770950692581968400,6.512968505859375,1.1044435501098633,0.17592905461788177,2.023184061050415
1770950692600935700,6.531935791015625,1.0445787906646729,-0.2211330533027649,2.8649559020996094
1770950692619903000,6.550903076171875,1.0739002227783203,-0.020769402384757996,3.571115493774414
1770950692638870300,6.569870361328125,0.8368847370147705,0.6084213256835938,3.5442373752593994
1770950692657837600,6.588837646484375,0.5595521330833435,1.361006736755371,2.8649559020996094
1770950692676804900,6.607804931640625,0.4263836145401001,2.400698661804199,1.8558071851730347
1770950692695772200,6.626772216796875,0.43860089778900146,2.5827362537384033,1.1643083095550537
1770950692714739500,6.645739501953125,0.4043924808502197,1.3646719455718994,0.8833104968070984
1770950692733706800,6.664706787109375,0.3946186602115631,0.4740310609340668,0.9358448386192322
1770950692752674000,6.683674072265625,1.3781108856201172,1.0201442241668701,1.2046253681182861
1770950692771641300,6.702641357421875,1.9474369287490845,0.8283326625823975,1.3158026933670044
1770950692790608600,6.721608642578125,1.6212351322174072,-0.768467903137207,1.5711442232131958
1770950692809576000,6.740575927734375,1.2596031427383423,-1.6187916994094849,1.8472551107406616
1770950692828543200,6.759543212890625,1.0286962985992432,-1.9327762126922607,1.8350378274917603
1770950692847510500,6.778510498046875,0.8588758707046509,-1.7653992176055908,1.4636319875717163
1770950692866478000,6.79747802734375,0.7281508445739746,-1.4966187477111816,0.9101884961128235
1770950692885445400,6.8164453125,0.4984656572341919,-1.081230640411377,0.2932150959968567
1770950692904412700,6.83541259765625,0.09896009415388107,-0.7244856357574463,-0.3995055556297302
1770950692923380000,6.8543798828125,-0.19792018830776215,-0.6438514590263367,-1.1239912509918213
1770950692942347300,6.87334716796875,-0.4728093445301056,-0.7049379348754883,-1.7434080839157104
1770950692961314600,6.892314453125,-0.647516667842865,-0.554665207862854,-2.4434590339660645
1770950692980281900,6.91128173828125,-0.7171552777290344,-0.4056142270565033,-3.1300711631774902
1770950692999249200,6.930249267578125,-1.2021819353103638,0.3335321843624115,-2.5778493881225586
1770950693018216400,6.949216552734375,-0.6524035930633545,1.1655299663543701,-0.4581485986709595
1770950693037183700,6.968183837890625,0.5619956254959106,0.1893680840730667,0.41905322670936584
1770950693056151000,6.987151123046875,0.7086031436920166,-0.1282816082239151,0.39217519760131836
1770950693075118600,7.00611865234375,-0.06352993845939636,0.010995565913617611,0.3970620930194855
1770950693094086000,7.0250859375,-0.41905322670936584,1.247385859489441,0.6805033683776855
1770950693113053200,7.04405322265625,0.1649334877729416,1.5296053886413574,0.4667007029056549
1770950693132020500,7.0630205078125,0.1490510106086731,0.6047561168670654,-0.5998691916465759
1770950693150987800,7.08198779296875,-0.3543015718460083,-0.3433060050010681,-1.2644901275634766
1770950693169955000,7.100955078125,-0.6230821013450623,-0.06108647957444191,-0.8979712128639221
1770950693188922600,7.119922607421875,-1.0787872076034546,-0.3066541254520416,-0.2968802750110626
1770950693207890000,7.138889892578125,-1.117882490158081,-0.952949047088623,0.23823726177215576
1770950693226857200,7.157857177734375,-0.6866120100021362,-0.9358448386192322,0.18692462146282196
1770950693245824500,7.176824462890625,-0.18814635276794434,-0.5864301919937134,-0.3298669755458832
1770950693264791800,7.195791748046875,0.08796452730894089,-0.34086254239082336,-0.8955277800559998
1770950693283759000,7.214759033203125,0.18325942754745483,-0.12583814561367035,-1.2608249187469482
1770950693302726700,7.2337265625,0.09162971377372742,0.31642794609069824,-1.284037709236145
1770950693321694000,7.25269384765625,-0.004886918235570192,0.6585122346878052,-1.1630865335464478
1770950693340661200,7.2716611328125,-0.16737695038318634,0.4776962697505951,-1.0653481483459473
1770950693359628500,7.290628662109375,-0.21258094906806946,-0.020769402384757996,-0.8197805285453796
1770950693388079600,7.31907958984375,-0.22846342623233795,-0.06108647957444191,-0.1795942485332489
1770950693407047000,7.338046875,-0.10751219838857651,0.17837251722812653,-0.1185077652335167
1770950693426014200,7.35701416015625,0.021991131827235222,0.6780598759651184,-0.20769402384757996
1770950693444981500,7.3759814453125,0.0769689604640007,0.7733548283576965,-0.1441640853881836
1770950693463949000,7.394948974609375,0.036651886999607086,0.4984656572341919,0.19303326308727264
1770950693482916400,7.413916259765625,-0.08552107214927673,0.0256563201546669,0.5632173418998718
1770950693501883600,7.432883544921875,-0.13927717506885529,-0.15149445831775665,0.6462949514389038
1770950693520851200,7.451851318359375,-0.12461641430854797,-0.05253437161445618,0.5668824911117554
1770950693539818500,7.470818603515625,-0.13927717506885529,0.07452550530433655,0.5192350745201111
1770950693558785800,7.489785888671875,-0.1026252806186676,0.7660244107246399,0.26878049969673157
1770950693577753000,7.508753173828125,-0.08796452730894089,1.2461642026901245,0.11484257876873016
1770950693596720600,7.527720703125,-0.1954767256975174,1.158199667930603,0.2309068888425827
1770950693615688000,7.54668798828125,-0.2003636509180069,0.3555232882499695,0.4838049113750458
1770950693634655200,7.5656552734375,-0.13561198115348816,-0.043982263654470444,0.943175196647644
1770950693653622500,7.58462255859375,0.3433060050010681,0.6450732350349426,1.9181153774261475
1770950693672590000,7.603590087890625,0.8491020202636719,0.8075632452964783,2.59006667137146
1770950693691557400,7.622557373046875,0.8772017955780029,0.5387827157974243,2.5741841793060303
1770950693710524700,7.641524658203125,1.1337649822235107,0.09529490768909454,2.891833782196045
1770950693729492000,7.660491943359375,1.4159845113754272,-0.12095122784376144,2.7757694721221924
1770950693748459500,7.67945947265625,1.858250617980957,-0.08674279600381851,2.3322818279266357
1770950693767426800,7.6984267578125,1.8704679012298584,-0.14782927930355072,1.8069380521774292
1770950693786394000,7.71739404296875,1.0482439994812012,-0.42882707715034485,1.0103703737258911
1770950693805361700,7.736361572265625,0.3909534513950348,-0.08429934084415436,0.3689623177051544
1770950693824329000,7.755328857421875,0.09162971377372742,0.4679224193096161,-0.2993237376213074
1770950693843296300,7.774296142578125,-0.14049890637397766,0.2626718580722809,-0.7843503952026367
1770950693862263800,7.793263916015625,-0.26511532068252563,-0.03909534588456154,-0.9798271059989929
1770950693881231000,7.812231201171875,-0.40805765986442566,-0.30054548382759094,-0.9786053895950317
1770950693900198400,7.831198486328125,-0.6352993845939636,-0.7257073521614075,-0.9004147052764893
1770950693919166000,7.850166015625,-0.8747583627700806,-1.1264346837997437,-0.8344413042068481
1770950693938133200,7.86913330078125,-1.1410953998565674,-1.2449424266815186,-0.851545512676239
1770950693957100500,7.8881005859375,-1.3915499448776245,-1.2522728443145752,-0.9407317638397217
1770950693976067800,7.90706787109375,-1.490510106086731,-1.51616632938385,-1.062904715538025
1770950693995035400,7.926035400390625,-1.3927717208862305,-2.0720534324645996,-1.176525592803955
1770950694014002700,7.945002685546875,-0.7977893948554993,-2.891833782196045,-1.237612009048462
1770950694032970000,7.963969970703125,0.4153880476951599,-3.360978126525879,-0.8503237962722778
1770950694051937500,7.9829375,0.2565632164478302,-1.839924693107605,-1.2877029180526733
1770950694070904800,8.00190478515625,0.4251618981361389,0.39339691400527954,-1.5332705974578857
1770950694089872400,8.020872314453126,0.7281508445739746,1.4025455713272095,-1.091004490852356
1770950694108839700,8.039839599609374,0.3689623177051544,1.1777472496032715,-0.2626718580722809
1770950694137290800,8.068290771484374,0.16737695038318634,-0.1795942485332489,-0.33719736337661743
1770950694156258000,8.087258056640625,0.06719512492418289,-1.8655810356140137,-1.2889246940612793
1770950694175225600,8.1062255859375,-0.3237583339214325,-0.45937031507492065,-0.7476984858512878
1770950694194193000,8.12519287109375,0.30543237924575806,4.6621198654174805,1.1447606086730957
1770950694213160200,8.14416015625,0.5852084755897522,2.0439536571502686,-1.2192860841751099
1770950694232127700,8.163127685546876,0.7257073521614075,1.85092031955719,-0.4007273018360138
1770950694251095000,8.182094970703124,0.39339691400527954,1.3365721702575684,0.24312418699264526
1770950694270062600,8.2010625,-0.27000224590301514,-0.7538071274757385,-0.21135921776294708
1770950694289030000,8.22002978515625,-0.4251618981361389,-2.5473060607910156,-0.8918625712394714
1770950694307997200,8.2389970703125,-0.5021308660507202,-2.0940444469451904,-1.2424989938735962
1770950694326964700,8.25796484375,-0.2052505612373352,0.4972439408302307,-1.1227694749832153
1770950694345932000,8.27693212890625,-0.018325943499803543,1.7934989929199219,-0.7696896195411682
1770950694364899600,8.295899658203124,-0.15271618962287903,1.1264346837997437,-0.7367029190063477
1770950694383867000,8.314866943359375,-0.3591884970664978,0.21258094906806946,-0.5326740741729736
1770950694402834200,8.333834228515625,-0.536339282989502,0.014660755172371864,0.10995566099882126
1770950694421801700,8.3528017578125,-0.4459312856197357,0.1539379209280014,0.6120865345001221
1770950694440769000,8.37176904296875,-0.26878049969673157,0.235793799161911,0.5314523577690125
1770950694459736600,8.390736572265626,-0.06352993845939636,0.6340776681900024,0.30054548382759094
1770950694478703900,8.409703857421874,0.2663370370864868,1.666439175605774,0.03543015569448471
1770950694497671400,8.42867138671875,0.4972439408302307,2.403141975402832,-0.1747073233127594
1770950694516638700,8.447638671875,0.3799578845500946,1.8814635276794434,0.1795942485332489
1770950694535606000,8.46660595703125,0.14538581669330597,1.2681553363800049,1.2889246940612793
1770950694554573600,8.485573486328125,0.06597339361906052,0.6866120100021362,2.544862747192383
1770950694573540900,8.504540771484375,0.3090975880622864,-0.08552107214927673,3.397629976272583
1770950694592508400,8.52350830078125,0.4776962697505951,0.24801109731197357,3.36708664894104
1770950694611475700,8.542475830078125,0.6218603253364563,0.6536253094673157,3.1007497310638428
1770950694630443300,8.561443359375,1.4648537635803223,0.4166097939014435,3.174053430557251
1770950694649410600,8.58041064453125,1.9022328853607178,0.3127627670764923,2.489884853363037
1770950694668377900,8.5993779296875,1.7849469184875488,-0.1331685185432434,2.0109667778015137
1770950694687345400,8.618345458984376,1.5381574630737305,-0.030543239787220955,1.4037672281265259
1770950694706312700,8.637312744140624,0.7648026943206787,-0.13561198115348816,0.3225366175174713
1770950694725280300,8.6562802734375,0.2003636509180069,0.2761108875274658,-0.43860089778900146
1770950694744247600,8.67524755859375,-0.07330377399921417,0.4764745235443115,-1.12765634059906
1770950694763215000,8.694215087890624,-0.21502439677715302,0.07574722915887833,-1.5479313135147095
1770950694782182400,8.713182373046875,-0.38850998878479004,-0.4324922561645508,-1.5540399551391602
1770950694801150000,8.73214990234375,-0.6768381595611572,-0.7061597108840942,-1.3988803625106812
1770950694820117200,8.7511171875,-1.0458004474639893,-0.8894191384315491,-1.2498292922973633
1770950694848568300,8.779568359375,-1.5809180736541748,-1.265711784362793,-1.351232886314392
1770950694867536000,8.798535888671875,-1.8729114532470703,-1.7837251424789429,-1.7580687999725342
1770950694886503200,8.817503173828126,-1.9132285118103027,-2.3909246921539307,-2.051283836364746
1770950694905470700,8.836470703125,-1.053130865097046,-3.0359978675842285,-1.284037709236145
1770950694924438000,8.85543798828125,-0.09896009415388107,-3.7702574729919434,0.1588248461484909
1770950694943405600,8.874405517578126,-0.10873392969369888,-1.9950844049453735,-0.35063639283180237
1770950694962372900,8.893372802734374,0.5338957905769348,0.29443681240081787,-1.109330415725708
1770950694981340400,8.91234033203125,0.9224058389663696,1.1410953998565674,-1.1753038167953491
1770950695000307700,8.9313076171875,0.7709113359451294,1.0128138065338135,-0.3481929302215576
1770950695019275300,8.950275146484374,0.5485565662384033,0.6829468011856079,0.3995055556297302
1770950695038242600,8.96924267578125,0.4153880476951599,-1.4917317628860474,-0.9590576887130737
1770950695057210000,8.988210205078126,-0.32131487131118774,-0.401949018239975,-0.6340776681900024
1770950695076177400,9.007177490234374,-0.1539379209280014,1.556483507156372,0.21502439677715302
1770950695095145000,9.02614501953125,0.15515965223312378,3.126405954360962,-0.34208428859710693
1770950695114112300,9.0451123046875,0.12583814561367035,1.459966778755188,-0.3029889166355133
1770950695133079800,9.064079833984374,0.036651886999607086,0.9578359723091125,0.31520622968673706
1770950695152047000,9.083047119140625,-0.23457208275794983,-0.667064368724823,-0.3543015718460083
1770950695171014700,9.1020146484375,-0.24801109731197357,-1.0018181800842285,-0.7269290685653687
1770950695189982200,9.120982177734374,-0.2675587832927704,-0.38240134716033936,-0.8271108865737915
1770950695208949500,9.139949462890625,-0.2211330533027649,-0.37262752652168274,-1.1166608333587646
1770950695227916800,9.158916748046876,-0.08307760953903198,-0.3909534513950348,-1.3060288429260254
1770950695246884400,9.17788427734375,-0.03298669680953026,-0.09040798991918564,-1.255937933921814
1770950695265851600,9.1968515625,-0.023212861269712448,0.4276053309440613,-0.8002328872680664
1770950695284819200,9.215819091796876,-0.1441640853881836,0.5510000586509705,-0.3139844834804535
1770950695303786800,9.234786865234375,-0.23335035145282745,0.758694052696228,0.030543239787220955
1770950695322754000,9.253754150390625,-0.29077163338661194,0.823445737361908,0.2919933497905731
1770950695341721600,9.2727216796875,-0.3750709891319275,0.7721330523490906,0.5583304166793823
1770950695360689000,9.29168896484375,-0.27855435013771057,1.0262528657913208,0.4324922561645508
1770950695379656400,9.310656494140625,0.026878049597144127,1.2449424266815186,0.026878049597144127
1770950695398623700,9.329623779296876,0.08796452730894089,1.3463460206985474,-0.07819069176912308
1770950695417591300,9.34859130859375,0.06963858753442764,1.1496474742889404,0.3995055556297302
1770950695436558600,9.36755859375,0.034208428114652634,0.7757982611656189,1.286481261253357
1770950695455526100,9.386526123046876,0.15027274191379547,0.33231043815612793,2.296851634979248
1770950695474493700,9.40549365234375,0.4740310609340668,-0.08063415437936783,3.071428060531616
1770950695493461000,9.4244609375,0.6548470258712769,0.1441640853881836,3.2168140411376953
1770950695512428500,9.443428466796876,0.730594277381897,0.7819069027900696,3.0726499557495117
1770950695531395800,9.462395751953125,1.2889246940612793,0.6328558921813965,3.1300711631774902
1770950695550363400,9.48136328125,1.255937933921814,-0.2614501118659973,3.230252981185913
1770950695569330700,9.50033056640625,1.5320488214492798,0.3652971386909485,2.184452533721924
1770950695588298200,9.51929833984375,1.5650355815887451,0.6304124593734741,1.2217295169830322
1770950695607265500,9.538265625,1.2107340097427368,0.6316341757774353,0.3787361681461334
1770950695626233000,9.557233154296876,0.6829468011856079,0.4422661066055298,-0.3078758418560028
1770950695645200600,9.57620068359375,0.19914191961288452,0.3860665261745453,-0.7831286191940308
1770950695664168000,9.59516796875,-0.0977383628487587,0.21991132199764252,-1.1740821599960327
1770950695683135500,9.614135498046876,-0.14049890637397766,-0.10995566099882126,-1.535714030265808
1770950695702102800,9.633102783203125,-0.1954767256975174,-0.4324922561645508,-1.7837251424789429
1770950695721070300,9.6520703125,-0.43982264399528503,-0.6646208763122559,-1.8533637523651123
1770950695740037600,9.67103759765625,-0.7525854110717773,-0.84177166223526,-1.760512351989746
1770950695759005200,9.690005126953125,-1.1936297416687012,-1.1936297416687012,-1.830150842666626
1770950695777972700,9.70897265625,-1.6859867572784424,-1.617569923400879,-1.9743149280548096
1770950695796940000,9.72793994140625,-1.7934989929199219,-1.85092031955719,-2.0268492698669434
1770950695815907600,9.746907470703125,-0.9798271059989929,-2.855181932449341,-0.9651663303375244
1770950695834875000,9.765875,-0.6462949514389038,-3.2595744132995605,-0.056199558079242706
1770950695853842400,9.784842529296874,-0.3090975880622864,-1.627343773841858,-0.740368127822876
1770950695872810000,9.80381005859375,0.30054548382759094,0.12705987691879272,-1.5222749710083008
1770950695891777300,9.82277734375,0.8112284541130066,1.0555742979049683,-1.433088779449463
1770950695910744800,9.841744873046874,0.9358448386192322,0.9517273306846619,-0.7171552777290344
1770950695929712000,9.860712158203125,0.7916807532310486,0.6084213256835938,-0.3078758418560028
1770950695948679700,9.8796796875,0.18325942754745483,0.924849271774292,0.38850998878479004
1770950695967647200,9.898647216796874,-0.3127627670764923,0.8576541543006897,0.8100066781044006
1770950695986614500,9.917614501953125,-0.17348559200763702,-0.8845322132110596,-0.1844811588525772
1770950696005582000,9.93658203125,0.1331685185432434,0.5387827157974243,-1.4367539882659912
1770950696024549400,9.95554931640625,0.235793799161911,2.7672173976898193,0.47036588191986084
1770950696043517000,9.974516845703125,0.2675587832927704,0.10995566099882126,0.235793799161911
1770950696062484500,9.993484375,0.1795942485332489,-0.5717694163322449,-0.13683371245861053
1770950696081451800,10.01245166015625,-0.0818558782339096,-0.6805033683776855,-0.8637627959251404
1770950696100419300,10.03141943359375,-0.08918625861406326,-0.20769402384757996,-1.1252129077911377
1770950696119387000,10.050386962890625,-0.2052505612373352,-0.009773836471140385,-1.1337649822235107
1770950696138354200,10.069354248046874,-0.22479823231697083,-0.06719512492418289,-1.2510510683059692
1770950696157321700,10.08832177734375,-0.1795942485332489,0.4422661066055298,-1.3060288429260254
1770950696176289000,10.1072890625,-0.14660754799842834,1.3182462453842163,-1.1972949504852295
1770950696195256600,10.126256591796874,-0.21868959069252014,1.5332705974578857,-0.7709113359451294
1770950696214224100,10.14522412109375,-0.3799578845500946,1.0665699243545532,-0.08552107214927673
1770950696233191400,10.16419140625,-0.5009090900421143,0.5766563415527344,0.3750709891319275
1770950696252159000,10.183158935546874,-0.4838049113750458,0.14294235408306122,0.6120865345001221
1770950696271126500,10.20212646484375,-0.46914416551589966,0.2919933497905731,0.6914989352226257
1770950696290093800,10.22109375,-0.15515965223312378,1.0567960739135742,0.3946186602115631
1770950696309061400,10.240061279296874,0.06230820715427399,1.450192928314209,0.24312418699264526
1770950696328029000,10.25902880859375,0.20280711352825165,1.3390156030654907,0.5998691916465759
1770950696346996200,10.277996337890626,0.1637117564678192,0.8710931539535522,1.3548980951309204
1770950696365963800,10.2969638671875,0.2993237376213074,0.31154105067253113,2.416581153869629
1770950696384931000,10.31593115234375,0.6988292932510376,0.17592905461788177,3.180161952972412
1770950696403898600,10.334898681640626,0.94439697265625,0.3750709891319275,2.819751739501953
1770950696422866200,10.3538662109375,0.94439697265625,0.16615521907806396,2.9626941680908203
1770950696441833500,10.37283349609375,1.0934479236602783,-0.4838049113750458,3.836230754852295
1770950696460801000,10.391801025390626,1.0934479236602783,-0.5314523577690125,3.85333514213562
1770950696479768600,10.4107685546875,1.3011419773101807,0.657290518283844,2.3542728424072266
1770950696498735900,10.42973583984375,1.3585633039474487,0.861319363117218,1.0751219987869263
1770950696517703400,10.448703369140626,1.1985167264938354,0.9615011811256409,0.22724169492721558
1770950696536671000,10.4676708984375,0.7929024696350098,0.5143481492996216,-0.3127627670764923
1770950696555638300,10.48663818359375,0.35796675086021423,0.2577849328517914,-0.6841685771942139
1770950696574605800,10.505605712890626,0.053756099194288254,0.10018182545900345,-1.117882490158081
1770950696593573400,10.524573486328125,-0.11728604137897491,0.04276053607463837,-1.5503748655319214
1770950696612540700,10.543540771484375,-0.30054548382759094,-0.10140355676412582,-1.9120067358016968
1770950696631508200,10.56250830078125,-0.516791582107544,-0.36163195967674255,-2.118479013442993
1770950696650475800,10.581475830078125,-0.8503237962722778,-0.6560688018798828,-2.1282529830932617
1770950696669443000,10.600443115234375,-1.4782928228378296,-1.109330415725708,-2.081827163696289
1770950696688410600,10.61941064453125,-2.1978914737701416,-1.7996076345443726,-2.0744967460632324
1770950696707378200,10.638378173828125,-2.274860382080078,-2.4801111221313477,-1.8704679012298584
1770950696726345500,10.657345458984375,-0.9566142559051514,-3.925417184829712,-0.1844811588525772
1770950696745313000,10.67631298828125,-0.675616443157196,-4.0585856437683105,-0.2968802750110626
1770950696764280600,10.695280517578125,-0.017104214057326317,-0.9407317638397217,-1.2547162771224976
1770950696783248000,10.714247802734375,0.7953459620475769,1.6334524154663086,-1.5625921487808228
1770950696802215400,10.73321533203125,1.0103703737258911,2.6047275066375732,-0.4776962697505951
1770950696821183000,10.752182861328125,0.6963858604431152,1.616348147392273,0.9101884961128235
1770950696840150500,10.771150634765625,0.4520399272441864,-1.0567960739135742,0.21258094906806946
1770950696859117800,10.790117919921874,-0.1026252806186676,-3.174053430557251,-1.2034035921096802
1770950696878085400,10.80908544921875,-0.3652971386909485,-0.05864302068948746,-0.6023126840591431
1770950696897053000,10.828052978515625,0.7122683525085449,5.356062412261963,-0.3995055556297302
1770950696916020200,10.847020263671874,0.730594277381897,0.7599157691001892,-1.0775654315948486
1770950696934987800,10.86598779296875,0.25045454502105713,-0.10018182545900345,0.4825831651687622
1770950696953955300,10.884955322265625,-0.3494146466255188,-0.9773836731910706,0.8930842876434326
1770950696972923000,10.9039228515625,-0.6878337264060974,-2.081827163696289,-0.03543015569448471
1770950696991890200,10.92289013671875,-0.43860089778900146,-2.1942262649536133,-1.2486076354980469
1770950697010857700,10.941857666015625,-0.2577849328517914,-0.2663370370864868,-1.5662572383880615
1770950697029825300,10.9608251953125,-0.10384701192378998,1.275485634803772,-1.5735876560211182
1770950697048792600,10.97979248046875,0.05742128938436508,1.5515965223312378,-1.5796962976455688
1770950697067760000,10.998760009765626,0.006108647678047419,1.0128138065338135,-1.3267983198165894
1770950697086727400,11.0177275390625,-0.25900667905807495,0.5302306413650513,-0.647516667842865
1770950697105695000,11.036695068359375,-0.4764745235443115,0.471587598323822,0.23457208275794983
1770950697124662500,11.05566259765625,-0.6267472505569458,-0.06597339361906052,0.730594277381897
1770950697143630000,11.074630126953124,-0.5290089249610901,-0.018325943499803543,0.7342594861984253
1770950697162597400,11.093597412109375,0.11484257876873016,1.4049890041351318,0.2370155304670334
1770950697181565000,11.11256494140625,0.4569268524646759,2.8258605003356934,0.3738492429256439
1770950697200532500,11.131532470703124,0.6010909676551819,2.839299440383911,1.1936297416687012
1770950697219500000,11.1505,0.46425724029541016,1.711643099784851,2.0744967460632324
1770950697238467300,11.16946728515625,0.3652971386909485,0.6621774435043335,3.154505729675293
1770950697257435000,11.188434814453124,0.3127627670764923,1.0409135818481445,3.4745988845825195
1770950697276402400,11.20740234375,0.5338957905769348,1.0458004474639893,2.7281219959259033
1770950697295370000,11.226369873046876,0.9553925395011902,-0.21868959069252014,2.657261848449707
1770950697314337300,11.245337158203125,1.4282019138336182,0.33597561717033386,2.9101598262786865
1770950697333304800,11.264304931640625,2.006079912185669,0.4153880476951599,1.8240422010421753
1770950697352272400,11.2832724609375,1.7763947248458862,-0.001221729558892548,1.3854413032531738
1770950697371240000,11.302239990234375,1.0690133571624756,-0.27488914132118225,0.80389803647995
1770950697390207200,11.321207275390625,0.41416633129119873,-0.1490510106086731,-0.20769402384757996
1770950697409174800,11.3401748046875,0.024434590712189674,0.1649334877729416,-0.9285144805908203
1770950697428142300,11.359142333984375,-0.1795942485332489,0.050090912729501724,-1.3671153783798218
1770950697447110000,11.37810986328125,-0.25045454502105713,-0.14172062277793884,-1.6969823837280273
1770950697466077200,11.3970771484375,-0.2993237376213074,-0.3396408259868622,-2.0134103298187256
1770950697485044700,11.416044677734375,-0.5387827157974243,-0.4422661066055298,-2.171013355255127
1770950697504012300,11.43501220703125,-0.9407317638397217,-0.25045454502105713,-2.357938051223755
1770950697522979800,11.453979736328124,-1.4685189723968506,-0.1380554437637329,-2.6364924907684326
1770950697541947100,11.472947021484375,-2.092822790145874,-0.5473348498344421,-2.726900339126587
1770950697560914700,11.491914794921875,-2.266308307647705,-2.0305144786834717,-1.9596542119979858
1770950697579882200,11.51088232421875,-1.490510106086731,-4.064694404602051,-0.15638138353824615
1770950697598849800,11.529849853515625,-0.9211840629577637,-3.8203482627868652,-0.10629047453403473
1770950697617817000,11.548817138671875,0.20402882993221283,-0.018325943499803543,-0.9773836731910706
1770950697636784600,11.56778466796875,1.0677915811538696,2.0940444469451904,-1.692095398902893
1770950697655752200,11.586752197265625,1.2693769931793213,2.3176209926605225,-1.2632683515548706
1770950697674719700,11.6057197265625,1.0372483730316162,2.4740023612976074,-0.5839866995811462
1770950697693687000,11.62468701171875,0.4569268524646759,-1.0519092082977295,-1.2828160524368286
1770950697712654600,11.643654541015625,-1.1740821599960327,-0.7916807532310486,0.44348782300949097
1770950697731622100,11.6626220703125,-1.099556565284729,-0.18814635276794434,1.5735876560211182
1770950697750589700,11.681589599609374,-0.8552106618881226,-1.849698543548584,-1.0177006721496582
1770950697769557000,11.700556884765625,0.7073814272880554,-0.36651885509490967,-3.095862627029419
1770950697788524500,11.719524658203126,0.665842592716217,3.3292131423950195,-0.6352993845939636
1770950697807492000,11.7384921875,0.2809978127479553,1.673769474029541,-0.10506874322891235
1770950697826459400,11.75745947265625,-0.03787361457943916,0.8295543789863586,-0.5412262082099915
1770950697845427000,11.776427001953126,-0.08552107214927673,1.1887428760528564,-1.431867003440857
1770950697864394500,11.79539453125,0.07330377399921417,1.5968005657196045,-2.305403709411621
1770950697883362000,11.814362060546875,0.10018182545900345,1.0030399560928345,-2.5754058361053467
1770950697902329600,11.83332958984375,-0.15760311484336853,0.4520399272441864,-2.2846343517303467
1770950697921297000,11.852296875,-0.5913171172142029,0.5192350745201111,-1.7983858585357666
1770950697940264400,11.871264404296875,-0.9676098227500916,0.5009090900421143,-1.4062107801437378
1770950697959232000,11.89023193359375,-1.0396918058395386,0.5119046568870544,-1.1398736238479614
1770950697978199600,11.909199462890625,-1.0861176252365112,1.2241730690002441,-0.758694052696228
1770950697997167000,11.9281669921875,-1.0384701490402222,1.9120067358016968,-0.19181154668331146
1770950698016134400,11.947134521484376,-0.962722897529602,1.452636480331421,-0.46059203147888184
1770950698035102000,11.96610205078125,-1.071456789970398,0.43371400237083435,-0.8723149299621582
1770950698054069500,11.985069580078125,-0.6621774435043335,-0.009773836471140385,-0.36285367608070374
1770950698073036800,12.004036865234376,-0.23335035145282745,0.5607738494873047,0.20647229254245758
1770950698092004400,12.02300439453125,-0.09040798991918564,0.23457208275794983,0.8454368710517883
1770950698110972000,12.041971923828125,0.1539379209280014,-0.2675587832927704,1.9413282871246338
1770950698129939500,12.060939453125,0.9382883310317993,-0.5473348498344421,2.6047275066375732
1770950698148907000,12.079906982421875,1.9278892278671265,-0.15271618962287903,2.6279401779174805
1770950698167874300,12.098874267578125,2.0182971954345703,-0.7770199775695801,2.950476884841919
1770950698186841900,12.117841796875,2.0109667778015137,-0.9859357476234436,2.8405213356018066
1770950698205809400,12.136809326171875,1.7275255918502808,0.02932151034474373,2.204000234603882
1770950698224777000,12.15577685546875,1.8533637523651123,1.6615521907806396,1.8631376028060913
1770950698243744300,12.174744140625,1.5968005657196045,4.054920196533203,1.6346741914749146
1770950698262711800,12.1937119140625,1.3842196464538574,4.886918067932129,0.7232639193534851
1770950698281679400,12.212679443359375,1.4770710468292236,3.9437429904937744,-0.370184063911438
1770950698300647000,12.23164697265625,1.507614254951477,1.422093152999878,-0.41783151030540466
1770950698319614200,12.2506142578125,1.655443549156189,-0.45326167345046997,1.275485634803772
1770950698338581800,12.269581787109376,1.2351685762405396,-1.3952151536941528,2.9663593769073486
1770950698357549300,12.28854931640625,0.7171552777290344,-3.037219762802124,2.8686211109161377
1770950698376516900,12.307516845703125,0.2406807243824005,-3.2229225635528564,2.0806055068969727
1770950698395484400,12.326484375,-0.3090975880622864,-3.22170090675354,1.656665325164795
1770950698414451700,12.34545166015625,-0.5253437161445618,-2.5583016872406006,0.9224058389663696
1770950698433419300,12.364419189453125,-0.4276053309440613,-1.722638726234436,-0.29077163338661194
1770950698452386800,12.38338671875,-0.20402882993221283,-1.5344923734664917,-1.4819579124450684
1770950698471354400,12.402354248046874,-0.046425722539424896,-1.8472551107406616,-2.1160356998443604
1770950698490321700,12.42132177734375,-0.3750709891319275,-1.1740821599960327,-1.8765766620635986
1770950698509289200,12.440289306640626,-0.7953459620475769,1.8228205442428589,0.3799578845500946
1770950698528256800,12.4592568359375,0.7354812026023865,0.27000224590301514,0.3347539007663727
1770950698547224300,12.478224365234375,1.6004657745361328,-1.100778341293335,1.2693769931793213
1770950698566191900,12.49719189453125,0.9334014058113098,0.4153880476951599,1.3573415279388428
1770950698585159200,12.5161591796875,-1.1154390573501587,2.2589778900146484,-0.17348559200763702
1770950698604126700,12.535126708984375,-0.84177166223526,1.3671153783798218,-0.6621774435043335
1770950698623094300,12.55409423828125,0.17104214429855347,1.7519601583480835,-0.7281508445739746
1770950698642061800,12.573061767578125,-0.12217295914888382,1.000596523284912,-2.7171266078948975
1770950698661029000,12.592029052734375,-0.665842592716217,2.8014259338378906,-4.188088893890381
1770950698679996700,12.61099658203125,-1.0396918058395386,4.389674186706543,-4.2736101150512695
1770950698698964200,12.629964111328125,-1.7959424257278442,4.475195407867432,-3.7873616218566895
1770950698717931800,12.648931884765625,-1.9291110038757324,2.42268967628479,-2.112370491027832
1770950698736899000,12.667899169921874,-1.9425499439239502,-0.38240134716033936,-0.13194678723812103
1770950698755866600,12.68686669921875,-2.4324636459350586,-2.596175193786621,-2.572962522506714
1770950698774834200,12.705834228515625,-0.5045742988586426,0.6780598759651184,-3.1386232376098633
1770950698793801700,12.7248017578125,0.5583304166793823,2.2027783393859863,-1.4025455713272095
1770950698812769300,12.743769287109375,0.40927940607070923,1.6627739667892456,-1.0592395067214966
1770950698831736600,12.762736572265625,0.2516762912273407,1.3854413032531738,-1.1154390573501587
1770950698850704100,12.7817041015625,0.23335035145282745,1.7287473678588867,-1.3158026933670044
1770950698869671700,12.800671630859375,0.1380554437637329,2.279747247695923,-1.9559890031814575
1770950698888639200,12.81963916015625,-0.050090912729501724,1.8558071851730347,-2.7415611743927
1770950698907606500,12.8386064453125,-0.22235478460788727,1.5515965223312378,-3.071428060531616
1770950698926574000,12.857573974609375,-0.3811796307563782,1.7397428750991821,-2.4178028106689453
1770950698945541600,12.876541748046876,-0.667064368724823,1.5613703727722168,-1.0971131324768066
1770950698964509200,12.89550927734375,-0.9016364216804504,0.8002328872680664,-0.38728827238082886
1770950698983476700,12.914476806640625,-0.8283326625823975,0.8405499458312988,-0.28588470816612244
1770950699002444000,12.933444091796876,-0.48502662777900696,1.2791508436203003,-0.08063415437936783
1770950699021411600,12.95241162109375,-0.07819069176912308,1.0030399560928345,-0.25534147024154663
1770950699040379100,12.971379150390625,0.36163195967674255,0.3836230933666229,-0.4263836145401001
1770950699059346700,12.9903466796875,0.8429933786392212,0.27000224590301514,-0.6145299673080444
1770950699078314200,13.009314208984375,1.0934479236602783,0.49480047821998596,-0.23212862014770508
1770950699097281500,13.028281494140625,1.323133111000061,0.740368127822876,0.8100066781044006
1770950699116249000,13.0472490234375,1.5613703727722168,1.2046253681182861,1.8936808109283447
1770950699135216600,13.066216552734375,1.488066554069519,0.5852084755897522,2.7928738594055176
1770950699154184000,13.085183837890625,1.4355322122573853,-0.12461641430854797,3.5295767784118652
1770950699173151500,13.1041513671875,0.7770199775695801,0.3078758418560028,3.9437429904937744
1770950699192119000,13.123119140625,0.41783151030540466,1.2681553363800049,3.6065456867218018
1770950699211086600,13.142086669921875,0.6035344004631042,1.6407828330993652,2.467893600463867
1770950699230054100,13.16105419921875,0.2981020212173462,2.307847023010254,0.7794634699821472
1770950699249021400,13.180021484375,0.6255255341529846,2.467893600463867,0.5705476999282837
1770950699267989000,13.198989013671875,0.80389803647995,2.9077162742614746,1.663995623588562
1770950699286956500,13.21795654296875,0.6414080262184143,0.7855721116065979,2.550971269607544
1770950699305924000,13.236924072265625,0.7611374855041504,0.07452550530433655,2.704909324645996
1770950699324891600,13.2558916015625,0.8356630206108093,-0.43982264399528503,2.6865832805633545
1770950699343859000,13.27485888671875,0.851545512676239,-1.1911863088607788,2.679252862930298
1770950699362826500,13.293826416015625,0.8124501705169678,-1.4294235706329346,2.6560399532318115
1770950699381794000,13.3127939453125,0.5668824911117554,-1.0567960739135742,2.188117742538452
1770950699400761600,13.33176171875,0.3543015718460083,-0.9798271059989929,1.5858049392700195
1770950699419729000,13.35072900390625,0.0720820426940918,-1.1496474742889404,0.9810488224029541
1770950699438696400,13.369696533203125,-0.2370155304670334,-1.0445787906646729,0.22724169492721558
1770950699457664000,13.3886640625,-0.3652971386909485,-1.3573415279388428,-0.5387827157974243
1770950699476631600,13.407631591796875,-0.2370155304670334,-1.617569923400879,-1.3255765438079834
1770950699495598800,13.426598876953125,-0.18203771114349365,-1.4196497201919556,-1.9950844049453735
1770950699514566400,13.44556640625,-0.647516667842865,-0.2883281707763672,-2.053727388381958
1770950699533534000,13.464533935546875,-0.8393282294273376,1.4563016891479492,-1.5320488214492798
1770950699552501500,13.48350146484375,-0.21135921776294708,-0.2712239623069763,-1.0506874322891235
1770950699571469000,13.502468994140624,0.3225366175174713,-2.0696098804473877,-0.22479823231697083
1770950699590436600,13.5214365234375,0.6291907429695129,-1.4831796884536743,0.8429933786392212
1770950699609404000,13.54040380859375,0.008552107028663158,0.5571087002754211,0.44959646463394165
1770950699628371500,13.559371337890624,-0.6878337264060974,1.7177517414093018,-1.2131774425506592
1770950699647339000,13.578339111328125,-1.0177006721496582,3.551567792892456,-0.9847140312194824
1770950699666306600,13.597306640625,-0.6035344004631042,2.207665205001831,-1.1264346837997437
1770950699685274000,13.616274169921875,-0.4776962697505951,0.8894191384315491,-2.6621487140655518
1770950699704241400,13.635241455078125,-0.3555232882499695,0.7428115606307983,-3.076314926147461
1770950699723209000,13.654208984375,-0.15027274191379547,0.4838049113750458,-2.8148648738861084
1770950699742176500,13.673176513671875,-0.7012727856636047,1.1948515176773071,-3.0921974182128906
1770950699761144000,13.69214404296875,-1.4953969717025757,3.0188937187194824,-2.9834635257720947
1770950699780111600,13.711111572265626,-1.5625921487808228,3.8912086486816406,-1.5577051639556885
1770950699799079000,13.730078857421875,-1.6065744161605835,0.23457208275794983,-1.100778341293335
1770950699818046500,13.74904638671875,-0.8955277800559998,-2.4630067348480225,-2.103818416595459
1770950699837014000,13.768013916015626,-0.28588470816612244,-0.7379246354103088,-0.7293725609779358
1770950699855981600,13.786981689453125,0.12461641430854797,0.05497783049941063,0.03787361457943916
1770950699874949000,13.80594921875,0.16615521907806396,0.26511532068252563,-0.09407317638397217
1770950699893916700,13.824916748046874,0.1844811588525772,0.9260709881782532,-0.5888736248016357
1770950699912884000,13.843884033203125,0.4373791813850403,2.2980732917785645,-1.4782928228378296
1770950699931851500,13.8628515625,0.43982264399528503,2.318842649459839,-2.107483386993408
1770950699950819000,13.881819091796874,0.14172062277793884,1.4379756450653076,-2.5411975383758545
1770950699969786600,13.90078662109375,-0.277332603931427,0.5497782826423645,-2.768439292907715
1770950699988754200,13.919754150390625,-0.5485565662384033,-0.13683371245861053,-2.572962522506714
1770950700007721500,13.938721435546874,-0.7660244107246399,-0.22846342623233795,-1.528383731842041
1770950700026689000,13.95768896484375,-1.0983349084854126,-0.06108647957444191,-0.5583304166793823
1770950700045656600,13.976656494140625,-1.0653481483459473,-0.06719512492418289,-0.4679224193096161
1770950700064624000,13.9956240234375,-0.7843503952026367,0.11484257876873016,-0.8014546036720276
1770950700083591700,14.014591796875,-0.5571087002754211,0.9517273306846619,-0.44470956921577454
1770950700102559200,14.033559326171876,-0.36774060130119324,0.9700532555580139,0.1649334877729416
1770950700121526500,14.052526611328124,-0.13683371245861053,0.2101374864578247,-0.023212861269712448
1770950700140494000,14.071494140625,0.31642794609069824,-0.14538581669330597,-0.6145299673080444
1770950700159461600,14.090461669921876,0.4874700903892517,-0.37140578031539917,-0.43982264399528503
1770950700178429200,14.10942919921875,0.42271843552589417,0.06597339361906052,0.5473348498344421
1770950700197396700,14.128396728515625,0.6939423680305481,0.16737695038318634,1.2815942764282227
1770950700216364300,14.1473642578125,0.8796452879905701,-0.3078758418560028,2.106261730194092
1770950700235331600,14.16633154296875,1.2156208753585815,-0.7098248600959778,3.1862707138061523
1770950700254299100,14.185299072265625,1.5577051639556885,-0.020769402384757996,3.596771717071533
1770950700273266700,14.2042666015625,1.285259485244751,0.2614501118659973,3.666410446166992
1770950700292234200,14.223234130859375,0.8429933786392212,0.4153880476951599,3.2058184146881104
1770950700311201800,14.242201904296875,0.8356630206108093,0.7000510096549988,2.2540910243988037
1770950700330169300,14.26116943359375,0.9114102721214294,1.6139047145843506,1.099556565284729
1770950700349136600,14.28013671875,0.8381064534187317,2.366490125656128,0.6963858604431152
1770950700368104200,14.299104248046875,0.7953459620475769,2.263864755630493,1.3255765438079834
1770950700387071700,14.31807177734375,0.8026763200759888,0.3225366175174713,2.207665205001831
1770950700406039300,14.337039306640625,1.2082905769348145,-0.4251618981361389,2.813643217086792
1770950700425006800,14.3560068359375,1.3585633039474487,-0.6120865345001221,3.0579891204833984
1770950700443974100,14.37497412109375,1.2009601593017578,-1.1068869829177856,2.596175193786621
1770950700462941700,14.393941650390625,1.0958913564682007,-1.3170244693756104,2.106261730194092
1770950700481909200,14.4129091796875,1.0189224481582642,-1.684765100479126,1.9547673463821411
1770950700500876800,14.431876708984374,0.7244856357574463,-1.6297872066497803,1.7666209936141968
1770950700519844400,14.45084423828125,0.36285367608070374,-1.3781108856201172,1.3365721702575684
1770950700538812000,14.46981201171875,-0.028099779039621353,-1.053130865097046,0.6866120100021362
1770950700557779200,14.488779296875,-0.2406807243824005,-0.7965676784515381,-0.10751219838857651
1770950700576746800,14.507746826171875,-0.22357651591300964,-0.45326167345046997,-0.7929024696350098
1770950700595714300,14.52671435546875,-0.15149445831775665,-0.20891575515270233,-1.2168426513671875
1770950700614681900,14.545681884765624,-0.2614501118659973,-0.5998691916465759,-1.497840404510498
1770950700633649400,14.5646494140625,-0.4373791813850403,-1.2143992185592651,-1.4049890041351318
1770950700652617000,14.583616943359376,-0.23823726177215576,-0.8991929292678833,-0.8051197528839111
1770950700671584500,14.60258447265625,0.21502439677715302,-0.6597339510917664,-0.5094612240791321
1770950700690551800,14.6215517578125,0.5204567909240723,-0.8368847370147705,0.1026252806186676
1770950700709519400,14.640519287109376,0.5253437161445618,-0.6145299673080444,0.5803215503692627
1770950700728487000,14.65948681640625,0.13439024984836578,0.6829468011856079,0.40317076444625854
1770950700747454500,14.678454345703125,-0.2919933497905731,1.1447606086730957,0.6096430420875549
1770950700766422000,14.697422119140626,-0.2162461280822754,1.6505566835403442,1.2070688009262085
1770950700785389600,14.7163896484375,-0.06475166976451874,0.6218603253364563,0.6316341757774353
1770950700804357000,14.735357177734375,-0.3530798554420471,0.30543237924575806,-1.3720022439956665
1770950700823324400,14.754324462890626,-0.5888736248016357,0.2406807243824005,-2.9040510654449463
1770950700842292000,14.7732919921875,-0.3787361681461334,0.43371400237083435,-3.152062177658081
1770950700861259500,14.792259521484375,-0.27855435013771057,1.3023637533187866,-2.9345943927764893
1770950700880227000,14.81122705078125,-0.3689623177051544,5.137372970581055,-0.5253437161445618
1770950700899194600,14.830194580078125,-1.3720022439956665,-0.5387827157974243,-1.0384701490402222
1770950700918162200,14.849162109375,-0.6878337264060974,-1.8277074098587036,-0.5558869242668152
1770950700937129700,14.868129638671874,-0.536339282989502,-2.1478004455566406,-0.1185077652335167
1770950700956097000,14.887096923828125,-0.5485565662384033,-2.199113130569458,-0.29443681240081787
1770950700975064600,14.906064697265625,-0.4459312856197357,-1.3927717208862305,-0.7367029190063477
1770950700994032000,14.9250322265625,-0.38728827238082886,-0.6267472505569458,-0.94439697265625
1770950701012999700,14.943999755859375,-0.20891575515270233,-0.07819069176912308,-1.0519092082977295
1770950701031967200,14.96296728515625,-0.021991131827235222,0.2883281707763672,-1.1655299663543701
1770950701050934800,14.981934814453124,0.009773836471140385,0.11606431007385254,-1.0384701490402222
1770950701069902300,15.00090234375,-0.08552107214927673,-0.38240134716033936,-0.695164144039154
1770950701088870000,15.019869873046876,-0.05864302068948746,-0.5705476999282837,-0.23823726177215576
1770950701107837200,15.038837158203124,-0.046425722539424896,-0.1747073233127594,0.002443459117785096
1770950701126804700,15.0578046875,0.021991131827235222,0.024434590712189674,0.1331685185432434
1770950701145772300,15.076772216796876,0.053756099194288254,-0.14660754799842834,0.3384190797805786
1770950701164739800,15.09573974609375,0.001221729558892548,-0.10629047453403473,0.6230821013450623
1770950701183707400,15.114707275390625,-0.01954767294228077,-0.13439024984836578,0.7220421433448792
1770950701202675000,15.133675048828126,-0.059864748269319534,-0.2211330533027649,0.5754346251487732
1770950701221642500,15.152642578125,-0.06230820715427399,0.277332603931427,0.3787361681461334
1770950701240610000,15.171610107421875,-0.04764745384454727,0.5558869242668152,0.33108872175216675
1770950701259577300,15.190577392578126,-0.1954767256975174,0.277332603931427,0.5864301919937134
1770950701278545000,15.209544921875,-0.4202749729156494,-0.06108647957444191,0.6462949514389038
1770950701297512400,15.228512451171875,-0.4153880476951599,0.017104214057326317,0.43493571877479553
1770950701316480000,15.24747998046875,-0.318871408700943,0.33719736337661743,0.2834412455558777
1770950701335447600,15.266447509765625,-0.20647229254245758,0.3640754222869873,0.08918625861406326
1770950701354415000,15.2854150390625,-0.1282816082239151,0.23335035145282745,-0.028099779039621353
1770950701373382700,15.304382568359374,0.10995566099882126,0.26878049969673157,0.40317076444625854
1770950701392350200,15.32335009765625,0.15271618962287903,0.39339691400527954,1.1068869829177856
1770950701411317800,15.34231787109375,0.24312418699264526,0.14782927930355072,2.235764980316162
1770950701430285000,15.36128515625,0.29443681240081787,0.010995565913617611,2.9492552280426025
1770950701449252600,15.380252685546875,0.4214966893196106,0.4838049113750458,2.8930556774139404
1770950701468220200,15.39922021484375,0.5729911923408508,0.6707295179367065,2.941924810409546
1770950701487187700,15.418187744140624,1.092226266860962,0.9663881063461304,2.7305655479431152
1770950701506155300,15.4371552734375,2.0463969707489014,0.46059203147888184,2.3457207679748535
1770950701525122800,15.456122802734376,2.279747247695923,0.5766563415527344,2.138026714324951
1770950701544090400,15.47509033203125,1.334128737449646,0.637742817401886,1.5381574630737305
1770950701563058000,15.494057861328125,0.6023126840591431,1.1887428760528564,1.0213658809661865
1770950701582025500,15.513025390625,0.3274235129356384,1.0323615074157715,0.481361448764801
1770950701600992800,15.53199267578125,0.18814635276794434,0.7660244107246399,0.06352993845939636
1770950701619960300,15.550960205078125,0.26878049969673157,0.4874700903892517,-0.13194678723812103
1770950701638928000,15.569927978515626,0.18325942754745483,0.2162461280822754,-0.40927940607070923
1770950701657895400,15.5888955078125,-0.09896009415388107,-0.13072505593299866,-0.7000510096549988
1770950701676863000,15.607863037109375,-0.39828383922576904,-0.4324922561645508,-0.9468404054641724
1770950701695830500,15.62683056640625,-0.8002328872680664,-0.5241219997406006,-1.1520910263061523
1770950701714798000,15.645798095703125,-1.0946696996688843,-0.24434591829776764,-1.488066554069519
1770950701733765600,15.664765625,-1.3756674528121948,0.05253437161445618,-1.7727296352386475
1770950701752733200,15.683733154296876,-1.6090178489685059,0.002443459117785096,-2.1087052822113037
1770950701771700700,15.70270068359375,-1.860694169998169,-0.6267472505569458,-2.375042200088501
1770950701790668000,15.72166796875,-1.848476767539978,-1.5198315382003784,-2.5326454639434814
1770950701809635600,15.740635498046874,-1.324354887008667,-2.6193881034851074,-2.164904832839966
1770950701828603100,15.75960302734375,-0.3555232882499695,-3.805687665939331,-1.2021819353103638
1770950701847570700,15.77857080078125,-0.3530798554420471,-3.056767463684082,-1.7458515167236328
1770950701866538200,15.797538330078124,0.14538581669330597,-0.6866120100021362,-2.0305144786834717
1770950701885505800,15.816505859375,0.6169734001159668,1.1850776672363281,-1.7091996669769287
1770950701904473300,15.835473388671875,0.6548470258712769,0.8918625712394714,-0.9993748068809509
1770950701923441000,15.85444091796875,0.41905322670936584,1.0079269409179688,-0.1490510106086731
1770950701942408400,15.873408447265625,0.3249800503253937,2.216217517852783,0.7513636946678162
1770950701961376000,15.8923759765625,0.3481929302215576,1.5222749710083008,-0.0513126403093338
1770950701980343600,15.911343505859374,0.030543239787220955,-1.1716386079788208,-1.0054833889007568
1770950701999310800,15.930310791015625,-0.5619956254959106,0.0977383628487587,0.14172062277793884
1770950702018278400,15.9492783203125,0.1539379209280014,2.8576254844665527,-0.6316341757774353
1770950702037246000,15.968245849609374,0.6304124593734741,1.0152572393417358,-0.05742128938436508
1770950702056213500,15.987213623046875,0.2003636509180069,-1.109330415725708,0.7220421433448792
1770950702075181000,16.00618115234375,0.0769689604640007,-1.3781108856201172,0.4361574649810791
1770950702094148600,16.025148681640626,-0.18081597983837128,-2.720791816711426,-0.8112284541130066
1770950702113116200,16.0441162109375,0.004886918235570192,-1.8081597089767456,-1.000596523284912
1770950702132083700,16.063083740234376,-0.034208428114652634,-0.003665188793092966,-0.2211330533027649
1770950702151051300,16.08205126953125,-0.12095122784376144,-0.4667007029056549,-0.22235478460788727
1770950702170018800,16.101018798828125,-0.18814635276794434,-0.4312705397605896,-0.3970620930194855
1770950702188986400,16.119986328125,-0.2516762912273407,-0.1893680840730667,-0.5571087002754211
1770950702207953700,16.13895361328125,-0.2162461280822754,0.35674503445625305,-0.411722868680954
1770950702226921200,16.157921142578125,-0.19181154668331146,0.9663881063461304,-0.12705987691879272
1770950702245888800,16.176888671875,-0.26022839546203613,0.8161153197288513,0.15638138353824615
1770950702264856300,16.195856201171875,-0.2577849328517914,0.2162461280822754,0.2370155304670334
1770950702283823900,16.214823974609374,-0.20647229254245758,0.10873392969369888,0.25411975383758545
1770950702302791400,16.23379150390625,-0.14660754799842834,0.28954991698265076,0.5998691916465759
1770950702321759000,16.252759033203127,0.017104214057326317,0.42882707715034485,0.6291907429695129
1770950702340726500,16.2717265625,-0.03543015569448471,0.8918625712394714,0.5705476999282837
1770950702359694000,16.290694091796876,-0.18325942754745483,1.2718204259872437,1.0861176252365112
1770950702378661600,16.30966162109375,0.08796452730894089,1.6236785650253296,2.175900459289551
1770950702397629000,16.32862890625,0.7073814272880554,1.6090178489685059,2.7452263832092285
1770950702416596700,16.3475966796875,0.9651663303375244,1.1838558912277222,2.6426010131835938
1770950702435564000,16.36656396484375,1.0396918058395386,0.7318159937858582,3.1361796855926514
1770950702454531600,16.385531494140626,1.2828160524368286,-0.34697118401527405,3.881434917449951
1770950702473499100,16.4044990234375,1.3194679021835327,-0.4630354940891266,3.6920666694641113
1770950702492466700,16.423466796875,1.51616632938385,0.22968515753746033,2.698800563812256
1770950702511434200,16.442434326171874,1.4196497201919556,0.8735366463661194,1.3292417526245117
1770950702530401800,16.46140185546875,1.1264346837997437,0.8930842876434326,0.39828383922576904
1770950702549369300,16.480369384765623,0.6963858604431152,0.768467903137207,-0.15760311484336853
1770950702568337000,16.4993369140625,0.3689623177051544,0.6780598759651184,-0.7183769941329956
1770950702587304400,16.518304443359376,0.22968515753746033,0.5253437161445618,-1.3658936023712158
1770950702606272000,16.53727197265625,0.11239911615848541,0.33108872175216675,-1.8924590349197388
1770950702625239600,16.556239501953126,-0.21135921776294708,0.009773836471140385,-2.1832306385040283
1770950702644207000,16.57520703125,-0.6841685771942139,-0.2565632164478302,-2.263864755630493
1770950702663174700,16.594174560546875,-1.352454662322998,-0.6743947267532349,-2.235764980316162
1770950702682142000,16.613141845703126,-2.0402884483337402,-1.3451242446899414,-2.2247695922851562
1770950702701109500,16.632109619140625,-2.439793825149536,-1.8570289611816406,-2.318842649459839
1770950702720077000,16.6510771484375,-2.3628249168395996,-2.05617094039917,-2.1135921478271484
1770950702739044600,16.670044677734374,-0.831997811794281,-3.397629976272583,-0.41905322670936584
1770950702758012200,16.68901220703125,-0.4728093445301056,-3.716501235961914,-0.5668824911117554
1770950702776979700,16.707979736328124,-0.21746785938739777,-0.9370665550231934,-1.5442661046981812
1770950702795947300,16.726947265625,0.42271843552589417,0.7721330523490906,-1.4282019138336182
1770950702814914800,16.745914794921877,0.7953459620475769,0.8258891701698303,-0.5436696410179138
1770950702833882400,16.76488232421875,0.730594277381897,0.8686497211456299,0.45937031507492065
1770950702852850000,16.783849853515626,0.34208428859710693,1.0567960739135742,0.8026763200759888
1770950702871817200,16.802817138671877,0.3494146466255188,-1.0091485977172852,-0.34208428859710693
1770950702890784800,16.82178466796875,0.002443459117785096,-1.4721840620040894,-1.138651967048645
1770950702909752300,16.84075244140625,0.06475166976451874,1.0164790153503418,-1.5406010150909424
1770950702928720000,16.859719970703125,0.4324922561645508,2.9150466918945312,0.08552107214927673
1770950702947687400,16.8786875,0.20158538222312927,-0.41783151030540466,0.14049890637397766
1770950702966655000,16.897655029296875,0.023212861269712448,0.1795942485332489,0.6414080262184143
1770950702985622500,16.91662255859375,-0.43860089778900146,-0.2528980076313019,0.3897317349910736
1770950703004590000,16.935590087890624,-0.5925388336181641,-2.10992693901062,-0.7880155444145203
1770950703023557600,16.9545576171875,-0.28954991698265076,-2.0977096557617188,-1.284037709236145
1770950703042525200,16.973525146484373,-0.11484257876873016,-0.4471530318260193,-1.1716386079788208
1770950703061492700,16.99249267578125,0.20891575515270233,1.1325433254241943,-1.0470222234725952
1770950703080460000,17.0114599609375,0.27488914132118225,1.3011419773101807,-1.120326042175293
1770950703099427600,17.030427490234374,0.05253437161445618,0.6805033683776855,-0.8491020202636719
1770950703118395100,17.04939501953125,-0.2883281707763672,0.5839866995811462,0.11362084746360779
1770950703137362700,17.06836279296875,-0.4862483739852905,0.3078758418560028,0.6707295179367065
1770950703156330200,17.087330322265625,-0.4923570156097412,-0.10140355676412582,0.665842592716217
1770950703175297800,17.1062978515625,-0.3848448097705841,-0.19425499439239502,0.42394015192985535
1770950703194265300,17.125265380859375,-0.19425499439239502,0.4935787320137024,0.05497783049941063
1770950703213233000,17.14423291015625,0.2968802750110626,1.905898094177246,-0.2419024556875229
1770950703232200400,17.163200439453124,0.32620179653167725,1.9914191961288452,-0.08674279600381851
1770950703251168000,17.18216796875,0.1026252806186676,0.8087849617004395,0.8503237962722778
1770950703270135600,17.201135498046874,-0.18081597983837128,0.370184063911438,2.1868958473205566
1770950703289102800,17.220102783203124,0.09407317638397217,0.21258094906806946,3.271791696548462
1770950703308070400,17.2390703125,0.4972439408302307,0.3640754222869873,3.5002551078796387
1770950703327038000,17.258037841796874,0.7440332770347595,1.4172062873840332,2.883281707763672
1770950703346005500,17.277005615234376,0.9590576887130737,0.9468404054641724,2.7672173976898193
1770950703364973000,17.29597314453125,1.431867003440857,0.12705987691879272,3.2485787868499756
1770950703383940600,17.314940673828126,1.68354332447052,0.20280711352825165,2.8209736347198486
1770950703402908200,17.333908203125,1.6725478172302246,0.3481929302215576,2.2247695922851562
1770950703421875700,17.352875732421875,1.2608249187469482,0.8576541543006897,1.0751219987869263
1770950703440843300,17.37184326171875,0.7892373204231262,0.8918625712394714,0.08796452730894089
1770950703459810800,17.390810791015625,0.4508182108402252,0.8588758707046509,-0.4105011224746704
1770950703478778000,17.409778076171875,0.20280711352825165,0.6963858604431152,-0.9749401807785034
1770950703497745700,17.42874560546875,0.0720820426940918,0.25534147024154663,-1.4721840620040894
1770950703516713200,17.447713134765625,-0.04886918142437935,-0.18692462146282196,-1.7140865325927734
1770950703535680800,17.4666806640625,-0.4862483739852905,-0.5057960152626038,-1.693317174911499
1770950703554648300,17.4856484375,-1.099556565284729,-0.8723149299621582,-1.6432262659072876
1770950703573615900,17.504615966796877,-1.8044945001602173,-1.3695588111877441,-1.6444480419158936
1770950703592583400,17.52358349609375,-2.3652684688568115,-1.7763947248458862,-1.7421863079071045
1770950703611551000,17.542551025390626,-2.4520111083984375,-2.2589778900146484,-1.841146469116211
1770950703630518500,17.5615185546875,-1.4404191970825195,-3.176496744155884,-1.313359260559082
1770950703649485800,17.58048583984375,0,-3.607767343521118,-0.3640754222869873
1770950703668453400,17.599453369140626,-0.11239911615848541,-2.296851634979248,-1.3463460206985474
1770950703687421000,17.6184208984375,0.2675587832927704,-0.12705987691879272,-1.8570289611816406
1770950703706388500,17.637388427734376,0.6450732350349426,1.2547162771224976,-1.4135410785675049
1770950703725356000,17.65635595703125,0.5338957905769348,1.488066554069519,-0.1905898153781891
1770950703744323600,17.675323486328125,0.5436696410179138,0.6560688018798828,0.40805765986442566
1770950703763291100,17.694291015625,0.3078758418560028,-1.1166608333587646,-0.647516667842865
1770950703782258700,17.7132587890625,0.06108647957444191,-0.7733548283576965,-0.9517273306846619
1770950703801226000,17.73222607421875,0.15149445831775665,4.550942420959473,0.6927206516265869
1770950703820193500,17.751193603515624,0.3139844834804535,2.4373505115509033,-0.4984656572341919
1770950703839161000,17.7701611328125,0.6304124593734741,0.235793799161911,-0.3958403766155243
1770950703858128600,17.789128662109373,0.12095122784376144,0.9505056142807007,0.5900954008102417
1770950703877096200,17.80809619140625,-0.4569268524646759,-0.4764745235443115,0.39828383922576904
1770950703896063700,17.827063720703126,-0.6878337264060974,-3.29133939743042,-0.8124501705169678
1770950703915031300,17.84603125,-0.49968740344047546,-2.6242752075195312,-1.3121376037597656
1770950703933998800,17.864998779296876,0.013439024798572063,1.1814124584197998,-0.7525854110717773
1770950703952966100,17.883966064453126,0.19425499439239502,1.8338160514831543,-0.8576541543006897
1770950703971933700,17.90293359375,0.2052505612373352,0.7806851863861084,-1.1630865335464478
1770950703990901200,17.9219013671875,0.10629047453403473,0.2101374864578247,-0.8955277800559998
1770950704009868800,17.940868896484375,-0.1747073233127594,0.26878049969673157,0.020769402384757996
1770950704028836400,17.95983642578125,-0.3738492429256439,-0.053756099194288254,0.627968966960907
1770950704047804000,17.978803955078124,-0.4728093445301056,-0.6194168925285339,0.7648026943206787
1770950704066771500,17.997771484375,-0.574212908744812,-0.6096430420875549,0.5424479246139526
1770950704085738800,18.01673876953125,-0.17837251722812653,0.6023126840591431,0.007330377586185932
1770950704104706300,18.035706298828124,0.11484257876873016,1.7079778909683228,-0.03298669680953026
1770950704123673900,18.054673828125,0.04276053607463837,1.4282019138336182,0.3860665261745453
1770950704142641400,18.073641357421874,-0.19303326308727264,0.695164144039154,0.8820887207984924
1770950704161609000,18.09260888671875,-0.2675587832927704,0.41783151030540466,1.507614254951477
1770950704180576500,18.111576416015627,-0.04153880476951599,0.5033525824546814,2.478889226913452
1770950704199544000,18.1305439453125,0.30054548382759094,0.4508182108402252,3.0995278358459473
1770950704218511400,18.149511474609376,0.6743947267532349,1.12765634059906,2.8954989910125732
1770950704237479000,18.16847900390625,0.8894191384315491,0.6646208763122559,2.726900339126587
1770950704256446500,18.187446533203126,1.352454662322998,0.09407317638397217,2.9578073024749756
1770950704275414000,18.2064140625,1.5430444478988647,0.47036588191986084,2.6694791316986084
1770950704294381600,18.225381591796875,1.5540399551391602,0.07452550530433655,2.3200645446777344
1770950704313349000,18.24434912109375,1.2742639780044556,0.14049890637397766,1.4782928228378296
1770950704332316400,18.26331640625,0.80389803647995,0.3836230933666229,0.47036588191986084
1770950704351284000,18.282283935546875,0.5057960152626038,0.6462949514389038,-0.23212862014770508
1770950704370251500,18.30125146484375,0.33597561717033386,0.4508182108402252,-0.7623592615127563
1770950704389219000,18.320218994140625,0.3127627670764923,0.17592905461788177,-1.2608249187469482
1770950704408186600,18.3391865234375,0.33108872175216675,-0.0256563201546669,-1.6029092073440552
1770950704427154200,18.358154296875,0.05253437161445618,-0.22968515753746033,-1.703091025352478
1770950704446121500,18.37712158203125,-0.49480047821998596,-0.5925388336181641,-1.5968005657196045
1770950704465089000,18.396089111328124,-1.1154390573501587,-0.84177166223526,-1.6285655498504639
1770950704484056600,18.415056640625,-1.5344923734664917,-1.0018181800842285,-1.5894701480865479
1770950704503024000,18.434024169921877,-1.8448116779327393,-1.0787872076034546,-1.6310089826583862
1770950704521991700,18.45299169921875,-1.9938626289367676,-1.1068869829177856,-1.528383731842041
1770950704540959200,18.471959228515626,-1.2779290676116943,-1.9950844049453735,-0.8210022449493408
1770950704559926500,18.490926513671877,-0.42394015192985535,-3.04821515083313,-0.20280711352825165
1770950704578894000,18.50989404296875,-0.3017672002315521,-2.796539068222046,-1.091004490852356
1770950704597861600,18.528861572265626,0.06963858753442764,-0.43004879355430603,-1.8900156021118164
1770950704616829200,18.5478291015625,0.3946186602115631,1.1972949504852295,-1.7947207689285278
1770950704635796700,18.566796630859375,0.7354812026023865,1.536935806274414,-1.0690133571624756
1770950704654764000,18.585763916015626,0.8344413042068481,2.012188673019409,-0.06230820715427399
1770950704673731600,18.604731689453125,0.37629270553588867,1.5894701480865479,0.2919933497905731
1770950704692699100,18.62369921875,-0.024434590712189674,-0.45937031507492065,-0.7929024696350098
1770950704711666700,18.642666748046874,-0.2003636509180069,-1.1081087589263916,-0.09896009415388107
1770950704730634000,18.661634033203125,-0.360410213470459,-0.04276053607463837,0.6731730103492737
1770950704749601500,18.6806015625,0.695164144039154,5.03474760055542,-1.9413282871246338
1770950704768569000,18.699569091796874,0.6976075768470764,0.9553925395011902,0.4972439408302307
1770950704787536600,18.71853662109375,-0.007330377586185932,-1.7421863079071045,1.5100576877593994
1770950704806504200,18.737504150390624,-0.020769402384757996,-1.3720022439956665,0.8784235715866089
1770950704825471500,18.756471435546874,-0.1747073233127594,-1.9107850790023804,-1.2779290676116943
1770950704844439000,18.77543896484375,-0.2211330533027649,-1.0482439994812012,-1.6334524154663086
1770950704863406600,18.794406494140624,-0.18325942754745483,0.277332603931427,-0.9896009564399719
1770950704882374100,18.8133740234375,-0.10873392969369888,0.18081597983837128,-0.8600975871086121
1770950704901341400,18.832341552734373,-0.10384701192378998,0.19181154668331146,-0.7635809779167175
1770950704920309000,18.85130908203125,-0.15760311484336853,0.3274235129356384,-0.5387827157974243
1770950704939276500,18.870276611328126,-0.3249800503253937,0.018325943499803543,-0.26511532068252563
1770950704958244000,18.889244140625,-0.544891357421875,-0.360410213470459,0.06841685622930527
1770950704977211600,18.908211669921876,-0.6536253094673157,-0.4508182108402252,0.40317076444625854
1770950704996179000,18.927178955078126,-0.5876519083976746,-0.2052505612373352,0.6181951761245728
1770950705015146500,18.946146484375,-0.4166097939014435,0.5204567909240723,0.544891357421875
1770950705034114000,18.965114013671876,-0.009773836471140385,1.5955787897109985,0.19425499439239502
1770950705053081600,18.98408154296875,0.19425499439239502,2.2724170684814453,0.030543239787220955
1770950705072049000,19.003048828125,0.26022839546203613,2.2259912490844727,-0.004886918235570192
1770950705091016400,19.022016357421876,0.1637117564678192,1.6346741914749146,0.3249800503253937
1770950705109984000,19.04098388671875,-0.059864748269319534,0.8552106618881226,1.0067051649093628
1770950705128951600,19.05995166015625,-0.18325942754745483,0.07574722915887833,1.3964369297027588
1770950705147918800,19.0789189453125,0.09040798991918564,-0.09285144507884979,1.5809180736541748
1770950705166886400,19.097886474609375,0.6976075768470764,0.7452550530433655,1.6713260412216187
1770950705185854000,19.11685400390625,1.110552191734314,1.3439024686813354,1.4355322122573853
1770950705204821500,19.135821533203124,1.2107340097427368,1.1496474742889404,1.7873903512954712
1770950705223788800,19.154788818359375,1.1349867582321167,-0.35185810923576355,2.794095516204834
1770950705242756400,19.17375634765625,1.2815942764282227,-0.8491020202636719,3.1532840728759766
1770950705261724000,19.192723876953124,1.5687007904052734,0.1637117564678192,2.4373505115509033
1770950705280691500,19.21169140625,1.3548980951309204,0.26878049969673157,1.712864875793457
1770950705299658800,19.23065869140625,0.768467903137207,0.4862483739852905,0.7929024696350098
1770950705318626300,19.249626220703124,0.3225366175174713,0.9211840629577637,0.21868959069252014
1770950705337593900,19.26859375,0.043982263654470444,0.9920443892478943,-0.0977383628487587
1770950705356561400,19.2875615234375,-0.09040798991918564,0.5253437161445618,-0.328645259141922
1770950705375528700,19.30652880859375,-0.14782927930355072,0.3078758418560028,-0.5155698657035828
1770950705394496300,19.325496337890623,-0.31520622968673706,0.11484257876873016,-0.6255255341529846
1770950705413463800,19.3444638671875,-0.554665207862854,-0.3139844834804535,-0.6120865345001221
1770950705432431400,19.363431396484376,-0.8759800791740417,-0.6548470258712769,-0.5937605500221252
1770950705451398700,19.382398681640623,-1.08978271484375,-0.7733548283576965,-0.6316341757774353
1770950705470366200,19.4013662109375,-1.1801908016204834,-0.6633991599082947,-0.6743947267532349
1770950705489333800,19.420333740234376,-1.2082905769348145,-0.546113133430481,-0.7195987105369568
1770950705508301000,19.439301025390623,-1.1985167264938354,-0.6487383842468262,-0.9065233469009399
1770950705527268600,19.4582685546875,-1.128878116607666,-1.000596523284912,-1.3597849607467651
1770950705546236200,19.477236083984376,-0.916297197341919,-1.3475676774978638,-1.6481131315231323
1770950705565203700,19.49620361328125,-0.33231043815612793,-2.0207407474517822,-1.3976585865020752
1770950705584171000,19.5151708984375,0.29077163338661194,-2.517984628677368,-1.0641264915466309
1770950705603138600,19.534138671875,0.24312418699264526,-2.0964879989624023,-1.3096940517425537
1770950705622106000,19.553106201171875,0.2761108875274658,-1.3182462453842163,-1.654221773147583
1770950705641073400,19.572073486328126,0.34697118401527405,-0.21502439677715302,-1.489288330078125
1770950705660041000,19.591041015625,0.2981020212173462,0.5424479246139526,-0.7660244107246399
1770950705679008500,19.610008544921875,0.318871408700943,0.6084213256835938,-0.25411975383758545
1770950705697975800,19.628975830078126,0.24312418699264526,0.7525854110717773,-0.008552107028663158
1770950705716943400,19.647943359375,0.3591884970664978,1.1129956245422363,0.5937605500221252
1770950705735911000,19.666910888671875,0.3066541254520416,0.15515965223312378,-0.1026252806186676
1770950705754878200,19.685878173828126,-0.2577849328517914,-1.296255111694336,-0.5302306413650513
1770950705773845800,19.704845703125,-0.32131487131118774,0.19669845700263977,0.14782927930355072
1770950705792813300,19.723813232421875,1.0482439994812012,4.690219879150391,-1.886350393295288
1770950705811780600,19.742780517578126,0.7379246354103088,2.7501132488250732,-0.46059203147888184
1770950705830748200,19.761748046875,0.08063415437936783,0.10140355676412582,0.33719736337661743
1770950705849715700,19.7807158203125,-0.05864302068948746,-0.5864301919937134,-0.11362084746360779
1770950705868683000,19.79968310546875,-0.3530798554420471,-0.9505056142807007,-0.48502662777900696
1770950705887650600,19.818650634765625,-0.4728093445301056,-0.9969313144683838,-0.7293725609779358
1770950705906618000,19.8376181640625,-0.44959646463394165,-0.7525854110717773,-0.9065233469009399
1770950705925585400,19.85658544921875,-0.33231043815612793,-0.3946186602115631,-0.8845322132110596
1770950705944553000,19.875552978515625,-0.2565632164478302,-0.17715078592300415,-0.7794634699821472
1770950705963520300,19.894520263671875,-0.23457208275794983,-0.09651663154363632,-0.7367029190063477
1770950705982487800,19.91348779296875,-0.17348559200763702,-0.046425722539424896,-0.5473348498344421
1770950706001455400,19.932455322265625,-0.19669845700263977,0,-0.3445277214050293
1770950706020422700,19.951422607421875,-0.27000224590301514,-0.11239911615848541,-0.15515965223312378
1770950706039390000,19.970389892578126,-0.31154105067253113,-0.12705987691879272,0.059864748269319534
1770950706058357500,19.989357421875,-0.2565632164478302,-0.0256563201546669,0.11972949653863907
1770950706077325000,20.008324951171875,-0.11728604137897491,0.29443681240081787,0.04886918142437935
1770950706096292600,20.027292724609374,-0.06841685622930527,0.9065233469009399,0.1331685185432434
1770950706115260000,20.046260009765625,0.15638138353824615,1.7666209936141968,0.29443681240081787
1770950706134227500,20.0652275390625,0.24556763470172882,2.120922565460205,0.44837474822998047
1770950706153195000,20.084195068359374,0.16249002516269684,1.4245367050170898,0.6340776681900024
1770950706172162300,20.103162353515625,-0.0513126403093338,0.370184063911438,0.833219587802887
1770950706191129900,20.1221298828125,-0.26022839546203613,-0.5045742988586426,0.8723149299621582
1770950706210097200,20.14109716796875,-0.23212862014770508,-1.0421353578567505,0.6096430420875549
1770950706229064700,20.160064697265625,-0.10384701192378998,-0.9847140312194824,0.4728093445301056
1770950706248032300,20.1790322265625,-0.05742128938436508,-0.4508182108402252,0.4410443603992462
1770950706266999600,20.19799951171875,0.004886918235570192,0.01588248461484909,0.36651885509490967
1770950706285967000,20.216967041015625,0.1185077652335167,0.3591884970664978,0.758694052696228
1770950706304934700,20.2359345703125,0.360410213470459,0.7220421433448792,1.588248372077942
1770950706323902000,20.25490185546875,0.4972439408302307,0.5033525824546814,2.553414821624756
1770950706342869500,20.273869384765625,0.37262752652168274,0.6548470258712769,2.891833782196045
1770950706361837000,20.292837158203124,0.4789179861545563,0.28466299176216125,3.0421066284179688
1770950706380804400,20.311804443359375,0.7904590368270874,-0.1539379209280014,2.995680809020996
1770950706399772000,20.33077197265625,1.0360267162322998,0.5155698657035828,2.431241750717163
1770950706418739200,20.3497392578125,1.3158026933670044,0.9932661056518555,1.5955787897109985
1770950706437706800,20.368706787109375,1.4245367050170898,0.9663881063461304,0.675616443157196
1770950706456674300,20.38767431640625,1.1887428760528564,0.5705476999282837,0.32009315490722656
1770950706475641600,20.4066416015625,0.9211840629577637,0.15760311484336853,0.3396408259868622
1770950706494609200,20.425609130859375,0.7721330523490906,-0.2932150959968567,0.17104214429855347
1770950706513576400,20.444576416015625,0.7195987105369568,-0.6731730103492737,-0.07941242307424545
1770950706532544000,20.4635439453125,0.5986474752426147,-0.7428115606307983,-0.3017672002315521
1770950706551511600,20.482511474609375,0.30054548382759094,-0.6927206516265869,-0.4410443603992462
1770950706570478800,20.501478759765625,-0.05497783049941063,-0.6682860851287842,-0.5607738494873047
1770950706589446400,20.5204462890625,-0.3127627670764923,-0.5082395076751709,-0.7134900689125061
1770950706608413700,20.53941357421875,-0.4679224193096161,-0.328645259141922,-0.9065233469009399
1770950706627381200,20.55838134765625,-0.6817250847816467,-0.27488914132118225,-1.0800089836120605
1770950706646348800,20.577348876953124,-0.8698714375495911,-0.16859868168830872,-1.2180644273757935
1770950706665316000,20.596316162109375,-1.0213658809661865,-0.08796452730894089,-1.3842196464538574
1770950706684283600,20.61528369140625,-1.117882490158081,-0.1185077652335167,-1.480736255645752
1770950706703251000,20.6342509765625,-1.1630865335464478,-0.31031930446624756,-1.5393792390823364
1770950706722218500,20.653218505859375,-1.0665699243545532,-0.7904590368270874,-1.536935806274414
1770950706741185800,20.672185791015625,-0.8625410795211792,-1.6517783403396606,-1.186299443244934
1770950706760153300,20.6911533203125,-0.6010909676551819,-2.210108757019043,-0.7440332770347595
1770950706779121000,20.710120849609375,-0.2419024556875229,-1.9205588102340698,-0.730594277381897
1770950706798088200,20.729088134765625,0.036651886999607086,-1.265711784362793,-0.9615011811256409
1770950706817055700,20.7480556640625,0.2822195291519165,-0.6010909676551819,-1.1533126831054688
1770950706836023000,20.76702294921875,0.27366742491722107,0.14782927930355072,-1.2315033674240112
1770950706854990600,20.785990478515625,0.2370155304670334,0.3946186602115631,-1.1997383832931519
1770950706873958000,20.8049580078125,0.3689623177051544,0.6010909676551819,-0.9211840629577637
1770950706892925400,20.823925537109375,0.4459312856197357,1.8448116779327393,-0.20891575515270233
1770950706911893000,20.84289306640625,0.12950333952903748,1.7263038158416748,-0.16004657745361328
1770950706930860300,20.8618603515625,0.1185077652335167,-0.5326740741729736,-0.8356630206108093
1770950706949827800,20.880827880859375,0.11606431007385254,-0.5155698657035828,-0.053756099194288254
1770950706968795100,20.899795166015625,0.10384701192378998,1.8655810356140137,0.972496747970581
1770950706987762700,20.9187626953125,0.5387827157974243,2.6731443405151367,-0.4459312856197357
1770950707006730000,20.93772998046875,0.6609556674957275,0.41905322670936584,0.0769689604640007
1770950707025697500,20.956697509765625,0.5106829404830933,-0.667064368724823,0.32131487131118774
1770950707044665000,20.9756650390625,0.21746785938739777,-0.6414080262184143,-0.2370155304670334
1770950707063632400,20.99463232421875,-0.06230820715427399,-0.4838049113750458,-0.8600975871086121
1770950707082600000,21.013599853515625,-0.20158538222312927,-0.4202749729156494,-0.9187406301498413
1770950707101567200,21.032567138671876,-0.41294458508491516,-0.6096430420875549,-0.6169734001159668
1770950707120534800,21.05153466796875,-0.48991355299949646,-0.7342594861984253,-0.4422661066055298
1770950707139502000,21.070502197265625,-0.46914416551589966,-0.5986474752426147,-0.43493571877479553
1770950707158469600,21.0894697265625,-0.4153880476951599,-0.3958403766155243,-0.4214966893196106
1770950707177437000,21.10843701171875,-0.3640754222869873,-0.2101374864578247,-0.4105011224746704
1770950707196404500,21.127404541015625,-0.2993237376213074,-0.08063415437936783,-0.37140578031539917
1770950707215371800,21.146371826171876,-0.2626718580722809,-0.004886918235570192,-0.3042106628417969
1770950707234339300,21.16533935546875,-0.20158538222312927,0.10018182545900345,-0.26511532068252563
1770950707253306600,21.184306640625,-0.14538581669330597,0.2614501118659973,-0.27366742491722107
1770950707272274200,21.203274169921876,-0.15271618962287903,0.2724456787109375,-0.13927717506885529
1770950707291241500,21.222241455078127,-0.16859868168830872,0.43860089778900146,0.27855435013771057
1770950707310209000,21.241208984375,-0.1490510106086731,0.8576541543006897,0.5241219997406006
1770950707329176300,21.26017626953125,-0.20280711352825165,0.8674280047416687,0.5705476999282837
1770950707348143900,21.279143798828127,-0.21135921776294708,0.4056142270565033,0.6181951761245728
1770950707367111200,21.298111083984374,-0.13927717506885529,-0.15149445831775665,0.5900954008102417
1770950707386078700,21.31707861328125,-0.036651886999607086,-0.4471530318260193,0.481361448764801
1770950707405046000,21.3360458984375,0.06352993845939636,-0.12217295914888382,0.25411975383758545
1770950707424013600,21.355013671875,0.24923282861709595,0.3433060050010681,0.12217295914888382
1770950707442980900,21.37398095703125,0.28588470816612244,0.526565432548523,0.017104214057326317
1770950707461948400,21.392948486328127,0.2162461280822754,0.4361574649810791,-0.06230820715427399
1770950707480916000,21.411916015625,-0.012217295356094837,-0.034208428114652634,0.3836230933666229
1770950707499883300,21.43088330078125,-0.2712239623069763,-0.6548470258712769,1.227838158607483
1770950707518850800,21.449850830078127,-0.2834412455558777,-0.8894191384315491,1.9388848543167114
1770950707537818000,21.468818115234374,-0.046425722539424896,-0.360410213470459,2.2259912490844727
1770950707556785700,21.48778564453125,0.34208428859710693,0.4251618981361389,2.2394301891326904
1770950707575753000,21.5067529296875,0.5375609993934631,0.9602794051170349,2.2675299644470215
1770950707594720300,21.52572021484375,0.4825831651687622,0.8185588121414185,2.5888450145721436
1770950707613687800,21.544687744140624,0.38850998878479004,0.41294458508491516,2.7586653232574463
1770950707632655400,21.5636552734375,0.5094612240791321,0.4068359434604645,2.2345433235168457
1770950707651622700,21.58262255859375,1.1129956245422363,0.9957095980644226,1.5210533142089844
1770950707670590000,21.60158984375,1.120326042175293,0.5607738494873047,1.331685185432434
1770950707689557500,21.6205576171875,0.9651663303375244,0.39217519760131836,0.9492838382720947
1770950707708524800,21.63952490234375,0.8381064534187317,0.3543015718460083,0.5302306413650513
1770950707727492400,21.658492431640624,0.8772017955780029,0.5607738494873047,0.2834412455558777
1770950707746459600,21.677459716796875,0.9810488224029541,0.2883281707763672,-0.01588248461484909
1770950707765427200,21.69642724609375,0.9138537049293518,-0.370184063911438,-0.16249002516269684
1770950707784394500,21.71539453125,0.6328558921813965,-0.9016364216804504,-0.12095122784376144
1770950707803362000,21.734362060546875,0.18081597983837128,-1.2327251434326172,-0.08307760953903198
1770950707822329300,21.753329345703126,-0.0720820426940918,-1.2583814859390259,-0.09896009415388107
1770950707841297000,21.772296875,-0.33597561717033386,-1.2913681268692017,-0.08796452730894089
1770950707860264200,21.79126416015625,-0.48502662777900696,-0.9602794051170349,-0.3433060050010681
1770950707879231700,21.810231689453126,-0.6181951761245728,-0.3909534513950348,-0.7232639193534851
1770950707898199000,21.829198974609376,-0.6939423680305481,0.020769402384757996,-1.033583164215088
1770950707917166600,21.84816650390625,-0.8344413042068481,0.14172062277793884,-1.324354887008667
1770950707936134000,21.8671337890625,-0.9834923148155212,0.026878049597144127,-1.6481131315231323
1770950707955101200,21.88610107421875,-1.130099892616272,-0.370184063911438,-1.8545855283737183
1770950707974068700,21.90506884765625,-0.9737184643745422,-1.2009601593017578,-1.4013237953186035
1770950707993036000,21.9240361328125,-0.526565432548523,-1.598022222518921,-0.7293725609779358
1770950708012003600,21.943003662109376,-0.31642794609069824,-1.323133111000061,-0.6890554428100586
1770950708030971000,21.961970947265623,-0.15027274191379547,-1.1215476989746094,-1.0775654315948486
1770950708049938400,21.9809384765625,0.08918625861406326,-0.9883792400360107,-1.3927717208862305
1770950708068905700,21.99990576171875,0.27977606654167175,-0.6096430420875549,-1.5687007904052734
1770950708087873000,22.018873046875,0.3433060050010681,0.29565855860710144,-1.7421863079071045
1770950708106840600,22.037840576171874,0.1747073233127594,1.0592395067214966,-1.5112794637680054
1770950708125807900,22.056807861328124,0.04520399495959282,0.5253437161445618,-0.8344413042068481
1770950708144775400,22.075775390625,0.03909534588456154,-0.18570289015769958,-0.30054548382759094
1770950708163742700,22.09474267578125,0.1282816082239151,-0.4630354940891266,-0.15271618962287903
1770950708182710300,22.113710205078124,0.030543239787220955,0.2981020212173462,0.1747073233127594
1770950708201677600,22.132677490234375,-0.2162461280822754,0.4276053309440613,-0.4569268524646759
1770950708220645000,22.15164501953125,-0.26022839546203613,0.01588248461484909,0.08063415437936783
1770950708239612400,22.1706123046875,-0.12950333952903748,-0.0720820426940918,0.7538071274757385
1770950708258579700,22.189579833984375,0.38240134716033936,0.6071996092796326,-0.8808670043945312
1770950708277547300,22.20854736328125,1.0262528657913208,3.1105234622955322,-1.8851287364959717
1770950708296514600,22.2275146484375,0.8625410795211792,2.003636360168457,-0.03176496922969818
1770950708315482000,22.246482177734375,0.3225366175174713,-1.0079269409179688,0.7171552777290344
1770950708334449400,22.265449462890626,0.043982263654470444,-1.265711784362793,0.5693259835243225
1770950708353417000,22.2844169921875,-0.18325942754745483,-1.284037709236145,-0.17592905461788177
1770950708372384300,22.30338427734375,-0.27000224590301514,-1.2119556665420532,-0.740368127822876
1770950708391351600,22.3223515625,-0.3017672002315521,-0.9382883310317993,-0.8967494964599609
1770950708410319000,22.341319091796876,-0.277332603931427,-0.49480047821998596,-0.8600975871086121
1770950708429286400,22.360286376953123,-0.16004657745361328,-0.08307760953903198,-0.9040798544883728
1770950708448254000,22.37925390625,-0.06719512492418289,0.22479823231697083,-1.0018181800842285
1770950708467221200,22.39822119140625,-0.1588248461484909,0.2968802750110626,-0.9395100474357605
1770950708486188500,22.4171884765625,-0.3848448097705841,0.2162461280822754,-0.6939423680305481
1770950708505156000,22.436156005859374,-0.5351175665855408,0.1331685185432434,-0.34697118401527405
1770950708524123400,22.455123291015624,-0.5400044918060303,0.0818558782339096,-0.12705987691879272
1770950708543090700,22.474090576171875,-0.45326167345046997,0.020769402384757996,0.09285144507884979
1770950708562058200,22.493058349609374,-0.3042106628417969,0.001221729558892548,0.1795942485332489
1770950708581025500,22.512025634765624,-0.14172062277793884,0.2370155304670334,0.11117739230394363
1770950708599993000,22.5309931640625,0.021991131827235222,0.8051197528839111,0.14049890637397766
1770950708618960400,22.54996044921875,0.15515965223312378,1.33290696144104,0.2419024556875229
1770950708637927700,22.568927734375,0.21258094906806946,1.442862629890442,0.4068359434604645
1770950708656895200,22.587895263671875,0.21380266547203064,0.8918625712394714,0.6181951761245728
1770950708675862500,22.606862548828126,0.11484257876873016,0.020769402384757996,0.8906408548355103
1770950708694830000,22.625830078125,-0.040317077189683914,-0.5082395076751709,0.9578359723091125
1770950708713797400,22.64479736328125,-0.11117739230394363,-0.5632173418998718,0.5412262082099915
1770950708732764700,22.6637646484375,0.003665188793092966,-0.0977383628487587,0.10629047453403473
1770950708751732200,22.682732177734376,-0.01588248461484909,0.19303326308727264,0.3090975880622864
1770950708770699500,22.701699462890623,-0.04764745384454727,0.01588248461484909,0.7391464114189148
1770950708789667000,22.7206669921875,0.023212861269712448,-0.21135921776294708,1.4110976457595825
1770950708808634400,22.73963427734375,0.22357651591300964,0.009773836471140385,2.355494499206543
1770950708827601700,22.7586015625,0.6120865345001221,1.1044435501098633,2.670700788497925
1770950708846569200,22.7775693359375,0.9040798544883728,1.6493349075317383,2.6047275066375732
1770950708865536500,22.79653662109375,1.062904715538025,1.2925899028778076,2.7342307567596436
1770950708884503800,22.81550390625,1.1325433254241943,1.508836030960083,2.548527956008911
1770950708903471400,22.834471435546874,1.4770710468292236,0.8454368710517883,2.1954479217529297
1770950708922438700,22.853438720703124,1.8460333347320557,0.5827649831771851,2.207665205001831
1770950708941406000,22.872406005859375,1.5858049392700195,0.7330377101898193,1.5858049392700195
1770950708960373500,22.89137353515625,1.137430191040039,0.49602219462394714,0.7660244107246399
1770950708979340800,22.9103408203125,0.6963858604431152,0.11728604137897491,0.4667007029056549
1770950708998308000,22.92930810546875,0.5790998339653015,-0.1185077652335167,0.25534147024154663
1770950709017275600,22.948275634765626,0.6291907429695129,-0.4153880476951599,0.012217295356094837
1770950709036243000,22.967242919921876,0.5778780579566956,-0.794124186038971,-0.15271618962287903
1770950709055210500,22.98621044921875,0.33719736337661743,-0.9712749719619751,-0.21991132199764252
1770950709074177800,23.005177734375,-0.056199558079242706,-0.8930842876434326,-0.25045454502105713
1770950709093145000,23.02414501953125,-0.4557051360607147,-0.7794634699821472,-0.36163195967674255
1770950709112112600,23.043112548828127,-0.7220421433448792,-0.7770199775695801,-0.4984656572341919
1770950709131080000,23.062079833984374,-0.8869756460189819,-0.748920202255249,-0.7440332770347595
1770950709150047200,23.081047119140624,-0.9517273306846619,-0.7000510096549988,-1.0018181800842285
1770950709169014800,23.100014892578123,-0.9187406301498413,-0.5021308660507202,-1.2192860841751099
1770950709187982000,23.118982177734374,-0.9590576887130737,-0.38728827238082886,-1.4172062873840332
1770950709206949400,23.137949462890624,-1.1142174005508423,-0.49113526940345764,-1.6004657745361328
1770950709225916700,23.156916748046875,-1.0971131324768066,-1.0274745225906372,-1.5027273893356323
1770950709244884200,23.17588427734375,-0.665842592716217,-1.7641774415969849,-1.0458004474639893
1770950709263851500,23.1948515625,-0.28466299176216125,-1.8668028116226196,-0.915075421333313
1770950709282819000,23.213819091796875,-0.06475166976451874,-1.5650355815887451,-1.3158026933670044
1770950709301786400,23.232786376953126,0.13561198115348816,-1.1875211000442505,-1.6334524154663086
1770950709320753700,23.251753662109376,0.26022839546203613,-0.46059203147888184,-1.528383731842041
1770950709339721200,23.27072119140625,0.277332603931427,-0.008552107028663158,-1.1166608333587646
1770950709358688500,23.2896884765625,0.1185077652335167,-0.12950333952903748,-0.758694052696228
1770950709377655800,23.30865576171875,0.046425722539424896,-0.2883281707763672,-0.5729911923408508
1770950709396623400,23.327623291015627,0.0513126403093338,0.31031930446624756,-0.3384190797805786
1770950709415590700,23.346590576171874,0.046425722539424896,1.1850776672363281,0.05864302068948746
1770950709434558000,23.365557861328124,-0.13072505593299866,0.21380266547203064,-0.7892373204231262
1770950709453525200,23.384525146484375,-0.22724169492721558,-0.10506874322891235,-0.41905322670936584
1770950709472492800,23.403492919921874,-0.17104214429855347,1.156977891921997,0.9505056142807007
1770950709491460000,23.422460205078124,0.023212861269712448,0.8393282294273376,-0.49113526940345764
1770950709510427400,23.441427490234375,0.29443681240081787,0.5436696410179138,-2.2540910243988037
1770950709529395000,23.46039501953125,0.4740310609340668,2.6047275066375732,-0.018325943499803543
1770950709548362200,23.4793623046875,0.3127627670764923,-0.1905898153781891,0.3543015718460083
1770950709567329500,23.49832958984375,0.06963858753442764,-0.6719512343406677,0.006108647678047419
1770950709586296800,23.517296875,-0.036651886999607086,-0.42394015192985535,-0.33108872175216675
1770950709614748000,23.545747802734375,-0.23823726177215576,-1.0152572393417358,-0.84177166223526
1770950709633715500,23.564715576171874,-0.2822195291519165,-1.0018181800842285,-0.9578359723091125
1770950709652682800,23.583682861328125,-0.2528980076313019,-0.38240134716033936,-0.8393282294273376
1770950709671650000,23.602650146484375,-0.16859868168830872,0.018325943499803543,-0.6230821013450623
1770950709690617600,23.62161767578125,-0.11728604137897491,0.19669845700263977,-0.6243038177490234
1770950709709585000,23.6405849609375,-0.19669845700263977,0.19792018830776215,-0.6414080262184143
1770950709728552200,23.65955224609375,-0.3274235129356384,0.2101374864578247,-0.5180133581161499
1770950709747519500,23.67851953125,-0.4410443603992462,0.2919933497905731,-0.22357651591300964
1770950709766487000,23.697487060546877,-0.5180133581161499,0.09162971377372742,-0.03298669680953026
1770950709785454300,23.716454345703124,-0.4923570156097412,-0.25900667905807495,-0.04520399495959282
1770950709804421600,23.735421630859374,-0.41416633129119873,-0.34574946761131287,-0.19425499439239502
1770950709823389200,23.75438916015625,-0.2370155304670334,0.37629270553588867,-0.3127627670764923
1770950709842356500,23.7733564453125,0.07086031138896942,1.4184280633926392,-0.1380554437637329
1770950709861323800,23.79232373046875,0.1698204129934311,1.5625921487808228,0.09407317638397217
1770950709880291000,23.811291015625,0.2406807243824005,1.0042617321014404,0.35063639283180237
