time,seconds_elapsed,z,y,x
1770950686182956500,0.11395654296875,-0.2770271897315979,-0.42332929372787476,0.38072147965431213
1770950686201923300,0.13292333984375,-0.2617555558681488,-0.49602219462394714,0.017867794260382652
1770950686220890600,0.151890625,-0.3686569035053253,-0.07269290834665298,-0.14401137828826904
1770950686258824700,0.18982470703125,-0.36743515729904175,0.2315177470445633,-0.1519526094198227
1770950686277791700,0.208791748046875,-0.4627300798892975,0.1337793916463852,-0.16478078067302704
1770950686296758800,0.2277587890625,-0.5965094566345215,0.0513126403093338,-0.12202023714780807
1770950686315725800,0.246725830078125,-0.6557633280754089,0.0054977829568088055,0.03130681812763214
1770950686334692900,0.26569287109375,-0.6716458201408386,-0.02260199747979641,0.2023489624261856
1770950686353660000,0.284659912109375,-0.6459894776344299,0.02260199747979641,0.2530507445335388
1770950686372627000,0.303626953125,-0.620333194732666,0.056810423731803894,0.1314886510372162
1770950686391594000,0.322593994140625,-0.6001746654510498,0.03848448023200035,-0.017562363296747208
1770950686410561000,0.34156103515625,-0.5714640021324158,0.23029601573944092,-0.05238165333867073
1770950686429528000,0.360528076171875,-0.5513054728507996,0.5021308660507202,-0.17516547441482544
1770950686448495000,0.3794951171875,-0.5225948095321655,0.6597339510917664,-0.3987419903278351
1770950686467462400,0.39846240234375,-0.4224129915237427,0.6524035930633545,-0.5386300086975098
1770950686486429200,0.41742919921875,-0.24892739951610565,0.4312705397605896,-0.5105302333831787
1770950686505396500,0.436396484375,-0.14080433547496796,0.09101885557174683,-0.3168860971927643
1770950686524363500,0.455363525390625,-0.14080433547496796,-0.13622283935546875,0.026419902220368385
1770950686543330300,0.474330322265625,-0.19272783398628235,-0.16065743565559387,0.3611738085746765
1770950686562297600,0.493297607421875,-0.2415970265865326,-0.20952661335468292,0.32879796624183655
1770950686581264600,0.5122646484375,-0.24281874299049377,-0.2663370370864868,-0.13423752784729004
1770950686600231700,0.531231689453125,-0.09804379940032959,-0.1337793916463852,-0.6565269231796265
1770950686619198700,0.55019873046875,0.2464839369058609,-0.12950333952903748,-0.8019127249717712
1770950686638165800,0.569165771484375,0.6759218573570251,0.037262752652168274,-0.3969093859195709
1770950686657132800,0.5881328125,0.898276686668396,0.11545344442129135,0.08872810751199722
1770950686676099800,0.607099853515625,0.815199077129364,-0.20647229254245758,0.2952004075050354
1770950686695067000,0.62606689453125,0.5219839811325073,-0.7519745230674744,0.12843431532382965
1770950686714034000,0.645033935546875,0.3136790692806244,-0.9749401807785034,-0.12996147572994232
1770950686733001000,0.6640009765625,0.36682429909706116,-0.8772017955780029,-0.26679518818855286
1770950686751968000,0.682968017578125,0.499381959438324,-0.6969966888427734,-0.15073087811470032
1770950686770935000,0.70193505859375,0.5867356061935425,-0.36163195967674255,0.14248420298099518
1770950686789902000,0.720902099609375,0.5983420610427856,-0.1496618688106537,0.295811265707016
1770950686808869400,0.739869384765625,0.508544921875,-0.3909534513950348,0.2695440948009491
1770950686827836200,0.758836181640625,0.4120282828807831,-1.1722495555877686,0.3404043912887573
1770950686846803200,0.77780322265625,0.35705047845840454,-1.3811652660369873,0.4503600597381592
1770950686865770500,0.7967705078125,0.25809037685394287,-0.6444623470306396,0.3520108163356781
1770950686884737300,0.8157373046875,0.011300998739898205,-0.2932150959968567,-0.07498364895582199
1770950686903704600,0.83470458984375,-0.2525925934314728,-0.7220421433448792,-0.5209149122238159
1770950686922671600,0.853671630859375,-0.19272783398628235,-1.1172716617584229,-0.559399425983429
1770950686941638700,0.872638671875,0.18234314024448395,-1.3121376037597656,-0.20937390625476837
1770950686960605700,0.891605712890625,0.47922343015670776,-1.4947861433029175,0.13759729266166687
1770950686979572700,0.91057275390625,0.5928442478179932,-1.3927717208862305,0.3984365463256836
1770950686998539800,0.929539794921875,0.5140427350997925,-1.2986985445022583,0.5242747068405151
1770950687017506800,0.9485068359375,0.23182319104671478,-1.164919137954712,0.4338667094707489
1770950687036473900,0.967473876953125,-0.07422006875276566,-0.9120211005210876,0.24205516278743744
1770950687055441000,0.98644091796875,-0.1328630894422531,-0.5296197533607483,-0.02367101050913334
1770950687074408000,1.005407958984375,-0.1285870373249054,-0.41416633129119873,-0.2594648003578186
1770950687093375000,1.024375,-0.08399390429258347,-0.4453204274177551,-0.16966769099235535
1770950687112342000,1.043342041015625,-0.044898562133312225,-0.43004879355430603,0.022754713892936707
1770950687131309000,1.06230908203125,-0.09010255336761475,-0.49113526940345764,0.0539088174700737
1770950687150276400,1.0812763671875,-0.17073670029640198,-0.5302306413650513,0.06795870512723923
1770950687169243100,1.1002431640625,-0.20922118425369263,-0.4917461574077606,-0.0639880821108818
1770950687188210400,1.11921044921875,-0.05406153202056885,-0.32559093832969666,-0.34987279772758484
1770950687207177500,1.138177490234375,0.02107483521103859,0.006108647678047419,-0.641866147518158
1770950687226144500,1.15714453125,-0.04917461425065994,0.33719736337661743,-0.5453495383262634
1770950687245111600,1.176111572265625,-0.129197895526886,0.39767298102378845,-0.22098033130168915
1770950687264078600,1.19507861328125,-0.11759147047996521,0.22968515753746033,0.025809036567807198
1770950687283045600,1.214045654296875,-0.15729768574237823,-0.015271619893610477,0.04413498193025589
1770950687302012700,1.2330126953125,-0.22510367631912231,-0.04764745384454727,-0.03527744114398956
1770950687320979700,1.251979736328125,-0.21838416159152985,0.07941242307424545,-0.06337722390890121
1770950687339946800,1.27094677734375,-0.2159406989812851,0.3042106628417969,0.08017600327730179
1770950687358913800,1.289913818359375,-0.2880227565765381,0.4984656572341919,0.26710063219070435
1770950687377880800,1.308880859375,-0.3607156574726105,0.5674933791160583,0.3410152494907379
1770950687396848000,1.32784814453125,-0.40714138746261597,0.4520399272441864,0.2701549530029297
1770950687415815000,1.34681494140625,-0.4315759539604187,0.3836230933666229,0.1773035079240799
1770950687434782200,1.3657822265625,-0.4004218578338623,0.35124725103378296,0.17791436612606049
1770950687453749200,1.384749267578125,-0.3851502537727356,0.37323838472366333,0.2793179154396057
1770950687472716300,1.40371630859375,-0.40775224566459656,0.4196641147136688,0.37949973344802856
1770950687491683300,1.422683349609375,-0.416304349899292,0.4770853817462921,0.45158177614212036
1770950687510650400,1.441650390625,-0.4462367296218872,0.4355465769767761,0.4454731345176697
1770950687529617400,1.460617431640625,-0.3753764033317566,0.4043924808502197,0.3361283540725708
1770950687548584400,1.47958447265625,-0.2770271897315979,0.42882707715034485,0.2585485279560089
1770950687567551500,1.498551513671875,-0.1591302752494812,0.4776962697505951,0.1724165827035904
1770950687586518500,1.5175185546875,-0.010079269297420979,0.4978547990322113,0.055741410702466965
1770950687605485800,1.53648583984375,0.09498947113752365,0.5974257588386536,0.052076224237680435
1770950687624452600,1.55545263671875,0.11698060482740402,0.4373791813850403,0.10949750989675522
1770950687643420000,1.574419921875,0.19822561740875244,0.35735589265823364,0.18280129134655
1770950687662387000,1.593386962890625,0.2977965772151947,0.20158538222312927,0.11194097250699997
1770950687681354000,1.61235400390625,0.28008151054382324,-0.0769689604640007,-0.1623373180627823
1770950687700321000,1.631321044921875,0.23182319104671478,-0.19730933010578156,-0.4964803457260132
1770950687719288000,1.6502880859375,0.3533852696418762,0.000610864779446274,-0.5514581799507141
1770950687738255000,1.669255126953125,0.6056724190711975,0.5687150955200195,-0.23747368156909943
1770950687757222100,1.68822216796875,0.757777750492096,0.4740310609340668,0.05940660089254379
1770950687776189200,1.707189208984375,0.6960803866386414,-0.12095122784376144,0.16997312009334564
1770950687795156500,1.726156494140625,0.6728675365447998,-0.6805033683776855,0.162031888961792
1770950687814123500,1.74512353515625,0.7999274134635925,-0.7507528066635132,0.12843431532382965
1770950687833090600,1.764090576171875,0.8677334189414978,-0.4838049113750458,0.14004075527191162
1770950687852057600,1.7830576171875,0.8274163603782654,-0.1380554437637329,0.21212279796600342
1770950687871024600,1.802024658203125,0.7211259007453918,0.0409279391169548,0.2860374450683594
1770950687889991700,1.82099169921875,0.6429351568222046,-0.05925388261675835,0.2842048406600952
1770950687908958700,1.839958740234375,0.6117810606956482,-0.10323614627122879,0.32268932461738586
1770950687927925800,1.85892578125,0.5739074349403381,-0.08429934084415436,0.2842048406600952
1770950687946892800,1.877892822265625,0.5989528894424438,-0.013439024798572063,0.15897755324840546
1770950687965860000,1.896860107421875,0.6325504779815674,0.050090912729501724,0.08933897316455841
1770950687984827100,1.9158271484375,0.5855138897895813,-0.13255766034126282,0.08384118974208832
1770950688003794200,1.934794189453125,0.476779967546463,-0.3390299379825592,0.10461059212684631
1770950688022761200,1.95376123046875,0.41813695430755615,-0.4367683231830597,0.10766492038965225
1770950688041728300,1.972728271484375,0.38209593296051025,-0.3842339515686035,0.13759729266166687
1770950688060695300,1.9916953125,0.34238970279693604,-0.26450446248054504,0.1718057245016098
1770950688079662600,2.01066259765625,0.2666424810886383,-0.10201441496610641,0.1565341055393219
1770950688098629600,2.029629638671875,0.20311254262924194,0.10018182545900345,0.07712167501449585
1770950688117596700,2.0485966796875,0.0821613147854805,0.21441353857517242,-0.043829549103975296
1770950688136563700,2.067563720703125,-0.06017018109560013,0.14477495849132538,-0.15378521382808685
1770950688155530800,2.08653076171875,-0.16768237948417664,0.09285144507884979,-0.22769984602928162
1770950688174497800,2.105497802734375,-0.17806708812713623,0.09590577334165573,-0.3113883137702942
1770950688193465000,2.124465087890625,-0.19272783398628235,-0.02871064469218254,-0.4176788032054901
1770950688212432100,2.14343212890625,-0.24404047429561615,-0.15638138353824615,-0.46227192878723145
1770950688231399200,2.162399169921875,-0.24831652641296387,-0.14110976457595825,-0.5282453298568726
1770950688250366200,2.1813662109375,-0.24281874299049377,-0.06352993845939636,-0.7481566667556763
1770950688269333200,2.200333251953125,-0.19761475920677185,0.06047561392188072,-0.9124792814254761
1770950688288300300,2.21930029296875,-0.13652828335762024,0.25411975383758545,-0.771980345249176
1770950688307267600,2.238267578125,-0.10170898586511612,0.24740023910999298,-0.29245150089263916
1770950688326234600,2.257234619140625,-0.0870482325553894,0.0409279391169548,0.1571449637413025
1770950688345201700,2.27620166015625,-0.07483093440532684,-0.08552107214927673,0.3019199073314667
1770950688364168700,2.295168701171875,-0.11942406743764877,-0.02871064469218254,0.1766926348209381
1770950688383135700,2.3141357421875,-0.22388194501399994,0.06230820715427399,-0.0847574844956398
1770950688402103000,2.33310302734375,-0.34666576981544495,0.1386663019657135,-0.2179260104894638
1770950688421070000,2.352070068359375,-0.4272999167442322,0.11667517572641373,-0.1000291109085083
1770950688440037000,2.371037109375,-0.4376846253871918,0.07635809481143951,0.12232567369937897
1770950688459004200,2.390004150390625,-0.467006117105484,0.08063415437936783,0.24083344638347626
1770950688477971500,2.408971435546875,-0.5195404887199402,0.14049890637397766,0.19868376851081848
1770950688496938500,2.4279384765625,-0.5342012643814087,0.24495677649974823,0.09605848789215088
1770950688515905500,2.446905517578125,-0.5250383019447327,0.3237583339214325,0.03130681812763214
1770950688534872600,2.46587255859375,-0.5256491303443909,0.31093016266822815,0.06062832847237587
1770950688553839600,2.484839599609375,-0.5146535634994507,0.29565855860710144,0.15347976982593536
1770950688572806700,2.503806640625,-0.49082985520362854,0.2712239623069763,0.22678354382514954
1770950688591774000,2.52277392578125,-0.47494736313819885,0.2608392536640167,0.2029598206281662
1770950688610741000,2.541740966796875,-0.41935867071151733,0.34086254239082336,0.08323032408952713
1770950688629708000,2.5607080078125,-0.3503309488296509,0.4789179861545563,-0.02306014485657215
1770950688648675300,2.57967529296875,-0.23487751185894012,0.5290089249610901,-0.024281874299049377
1770950688667642400,2.598642333984375,-0.11881320178508759,0.42394015192985535,0.08628465235233307
1770950688686609400,2.617609375,-0.025350889191031456,0.24251331388950348,0.20967933535575867
1770950688705576400,2.636576416015625,0.013744457624852657,0.0769689604640007,0.24144430458545685
1770950688724543700,2.655543701171875,0.03145953640341759,0.07330377399921417,0.14798198640346527
1770950688743510800,2.6745107421875,0.035124726593494415,0.024434590712189674,-0.09147699922323227
1770950688762477800,2.693477783203125,0.035735588520765305,0.11239911615848541,-0.37980517745018005
1770950688781445000,2.712445068359375,0.0461202897131443,0.34636032581329346,-0.6082686185836792
1770950688800412200,2.731412109375,0.1597411334514618,0.5949822664260864,-0.6241511106491089
1770950688819379200,2.750379150390625,0.3802633285522461,0.924849271774292,-0.2747364342212677
1770950688838346200,2.76934619140625,0.5696313977241516,0.9126319885253906,0.13271036744117737
1770950688857313500,2.7883134765625,0.6178897023200989,0.360410213470459,0.26648977398872375
1770950688876280600,2.807280517578125,0.5885682106018066,-0.23945899307727814,0.22434009611606598
1770950688895247600,2.82624755859375,0.6026180982589722,-0.33658650517463684,0.10766492038965225
1770950688914215000,2.84521484375,0.6447677612304688,-0.08307760953903198,-0.09758564829826355
1770950688933182000,2.864181884765625,0.6062833070755005,0.16676609218120575,-0.23625195026397705
1770950688952149000,2.88314892578125,0.4474584460258484,0.2864955961704254,-0.27290382981300354
1770950688971116000,2.902115966796875,0.3387245237827301,0.318871408700943,-0.28756460547447205
1770950688990083300,2.921083251953125,0.3704894781112671,0.40866854786872864,-0.34926193952560425
1770950689009050400,2.94005029296875,0.4059196412563324,0.42394015192985535,-0.4653262495994568
1770950689028017400,2.959017333984375,0.5592467188835144,0.23212862014770508,-0.5826122760772705
1770950689046984700,2.977984619140625,0.41813695430755615,-0.02260199747979641,-0.5148062705993652
1770950689065951700,2.99695166015625,0.27947062253952026,-0.3042106628417969,-0.17944152653217316
1770950689084918800,3.015918701171875,0.24404047429561615,-0.5962040424346924,0.10094540566205978
1770950689103885800,3.0348857421875,0.19700388610363007,-0.573602020740509,0.26771149039268494
1770950689122853000,3.05385302734375,0.2611446976661682,-0.36712974309921265,0.4540252387523651
1770950689141820200,3.072820068359375,0.2776380479335785,-0.14599667489528656,0.5193877816200256
1770950689160787200,3.091787109375,0.24831652641296387,0.01282816007733345,0.502894401550293
1770950689179754500,3.11075439453125,0.21838416159152985,0.01588248461484909,0.522442102432251
1770950689198721500,3.129721435546875,0.1695149689912796,-0.1081230640411377,0.5658134818077087
1770950689217688800,3.148688720703125,0.057726722210645676,-0.2632827162742615,0.5303833484649658
1770950689236655900,3.16765576171875,-0.13591741025447845,-0.4404335021972656,0.3404043912887573
1770950689255623000,3.186622802734375,-0.31490078568458557,-0.6218603253364563,0.18402300775051117
1770950689274590200,3.205590087890625,-0.4156934916973114,-0.593149721622467,0.04657844081521034
1770950689293557200,3.22455712890625,-0.43829548358917236,-0.389120876789093,-0.12140937149524689
1770950689312524300,3.243524169921875,-0.416304349899292,-0.09957095980644226,-0.25152358412742615
1770950689331491600,3.26249169921875,-0.4114174246788025,0.1337793916463852,-0.300392746925354
1770950689350458600,3.281458740234375,-0.38881543278694153,0.21135921776294708,-0.43600472807884216
1770950689369425700,3.30042578125,-0.3582721948623657,0.14294235408306122,-0.5893318057060242
1770950689388393000,3.31939306640625,-0.28435754776000977,0.1490510106086731,-0.47693267464637756
1770950689407360000,3.338360107421875,-0.21288637816905975,0.16126830875873566,-0.07009673118591309
1770950689426327300,3.357327392578125,-0.21227550506591797,0.04276053607463837,0.2750418782234192
1770950689445294300,3.37629443359375,-0.2153298407793045,-0.08063415437936783,0.39965829253196716
1770950689464261400,3.395261474609375,-0.18661919236183167,-0.10506874322891235,0.32330018281936646
1770950689483228400,3.414228515625,-0.20861032605171204,-0.031154103577136993,0.11682789027690887
1770950689502195700,3.43319580078125,-0.27580544352531433,-0.013439024798572063,-0.060933761298656464
1770950689521163000,3.4521630859375,-0.3601047992706299,-0.05497783049941063,-0.07376192510128021
1770950689540130000,3.471130126953125,-0.44440412521362305,-0.10629047453403473,0.052076224237680435
1770950689559097000,3.49009716796875,-0.46517354249954224,-0.12583814561367035,0.12354740500450134
1770950689578064400,3.509064453125,-0.49510589241981506,-0.09590577334165573,0.1467602699995041
1770950689597031400,3.528031494140625,-0.5146535634994507,-0.11362084746360779,0.15042544901371002
1770950689615998500,3.54699853515625,-0.4944950342178345,-0.14233149588108063,0.11377356201410294
1770950689634965800,3.5659658203125,-0.5482511520385742,-0.1954767256975174,0.08933897316455841
1770950689653932800,3.584932861328125,-0.572685718536377,-0.12950333952903748,0.017256930470466614
1770950689672900000,3.603900146484375,-0.5232056975364685,0.0977383628487587,-0.08170316368341446
1770950689691867100,3.6228671875,-0.42913252115249634,0.3329212963581085,-0.16050471365451813
1770950689710834400,3.64183447265625,-0.42974337935447693,0.4410443603992462,-0.19960007071495056
1770950689729801500,3.660801513671875,-0.3863719701766968,0.45387253165245056,-0.23747368156909943
1770950689748768800,3.679768798828125,-0.2110537886619568,0.5393936038017273,-0.301003634929657
1770950689767735800,3.69873583984375,-0.02107483521103859,0.6872228980064392,-0.3938550651073456
1770950689786702800,3.717702880859375,0.18112140893936157,0.6517927050590515,-0.49770209193229675
1770950689805670100,3.736670166015625,0.4211912751197815,0.401949018239975,-0.6577486395835876
1770950689824637200,3.75563720703125,0.68386310338974,0.28466299176216125,-0.7762564420700073
1770950689843604500,3.7746044921875,0.8084795475006104,0.31581708788871765,-0.8434515595436096
1770950689862571500,3.793571533203125,0.7461713552474976,0.3652971386909485,-1.0596976280212402
1770950689881538800,3.812538818359375,0.6527090072631836,0.4221075773239136,-1.3761255741119385
1770950689900505900,3.831505859375,0.5763509273529053,0.21746785938739777,-1.7175990343093872
1770950689919473000,3.850472900390625,0.035124726593494415,0.8197805285453796,-2.140317440032959
1770950689938440200,3.869440185546875,-0.168904110789299,0.35674503445625305,-2.707200050354004
1770950689957407200,3.8884072265625,0.35582873225212097,0.16065743565559387,-2.995528221130371
1770950689976374500,3.90737451171875,1.0980294942855835,0.925460159778595,-3.1079273223876953
1770950689995341600,3.926341552734375,1.4535527229309082,1.6743803024291992,-2.9943063259124756
1770950690014308900,3.945308837890625,1.3387101888656616,2.078772783279419,-2.5642576217651367
1770950690033276200,3.964276123046875,0.9459241032600403,1.6536109447479248,-1.8697043657302856
1770950690052243200,3.9832431640625,0.6826413869857788,1.3151918649673462,-1.021213173866272
1770950690071210200,4.002210205078125,0.4987711012363434,1.1398736238479614,-0.2393062710762024
1770950690090177500,4.021177490234375,0.4425715208053589,1.2870920896530151,0.3306305706501007
1770950690109144600,4.04014453125,0.5971203446388245,1.5430444478988647,0.9146173000335693
1770950690128111900,4.05911181640625,1.14017915725708,1.3683371543884277,1.3495529890060425
1770950690147079000,4.078078857421875,1.572060465812683,0.9682206511497498,1.2524255514144897
1770950690166046200,4.097046142578125,1.306334376335144,1.1533126831054688,0.31780239939689636
1770950690185013200,4.11601318359375,0.8750637769699097,1.5210533142089844,-0.23686282336711884
1770950690203980500,4.13498046875,0.6533198952674866,0.9859357476234436,-0.3413206934928894
1770950690222947600,4.153947509765625,0.619722306728363,0.5925388336181641,-0.13484840095043182
1770950690241915000,4.172914794921875,0.6966912746429443,0.6774490475654602,0.38072147965431213
1770950690260882000,4.1918818359375,0.7742711305618286,1.7886121273040771,1.0074687004089355
1770950690279849200,4.21084912109375,1.2159262895584106,2.657261848449707,1.253036379814148
1770950690298816300,4.229816162109375,1.4816524982452393,1.2705987691879272,-0.013897174037992954
1770950690317783600,4.248783447265625,0.8677334189414978,0.7428115606307983,-1.5880956649780273
1770950690336750800,4.267750732421875,0.37232208251953125,0.9376774430274963,-2.184910535812378
1770950690355718000,4.2867177734375,0.23793183267116547,1.1044435501098633,-2.377332925796509
1770950690374685000,4.305684814453125,-0.3020726442337036,1.156977891921997,-2.3394594192504883
1770950690393652200,4.32465234375,-1.109635829925537,1.0152572393417358,-2.0835070610046387
1770950690412619300,4.343619384765625,-1.9269729852676392,0.8698714375495911,-1.8519892692565918
1770950690431586600,4.362586669921875,-2.3991713523864746,0.4990765154361725,-2.1922409534454346
1770950690450553600,4.3815537109375,-2.5524985790252686,0.06108647957444191,-2.4408628940582275
1770950690495573500,4.426573486328125,-2.304487466812134,-0.46425724029541016,-2.231947183609009
1770950690514540800,4.445540771484375,-1.860999584197998,0.6426297426223755,-3.234987258911133
1770950690533507800,4.4645078125,-1.6985095739364624,0.8368847370147705,-3.6528186798095703
1770950690552475100,4.48347509765625,-1.619097113609314,0.7269290685653687,-2.8623595237731934
1770950690571442200,4.502442138671875,-1.2941170930862427,1.1032217741012573,-2.1244349479675293
1770950690590409500,4.521409423828125,-0.9532544612884521,1.9193371534347534,-2.009592294692993
1770950690609376500,4.54037646484375,-0.9251546859741211,2.5631885528564453,-1.8996367454528809
1770950690628343800,4.55934375,-0.48533207178115845,3.082423686981201,-1.4341577291488647
1770950690647311000,4.57831103515625,0.26480987668037415,3.332878351211548,-1.2008074522018433
1770950690666278100,4.597278076171875,0.5971203446388245,3.5613417625427246,-1.032208800315857
1770950690685245200,4.6162451171875,0.8475748896598816,3.1923792362213135,-0.7279980778694153
1770950690704212500,4.63521240234375,1.1151336431503296,2.550971269607544,-0.37003132700920105
1770950690723179800,4.6541796875,1.2715150117874146,2.5692973136901855,-0.1562286615371704
1770950690751630600,4.682630615234375,1.3961313962936401,3.4293949604034424,0.12721258401870728
1770950690770597600,4.70159765625,1.3203842639923096,3.043328285217285,0.3568977415561676
1770950690789565000,4.72056494140625,1.4132356643676758,2.774547815322876,0.7319687008857727
1770950690808532000,4.739531982421875,1.360701322555542,2.1807873249053955,0.8333722949028015
1770950690827499300,4.758499267578125,1.3863576650619507,1.102000117301941,0.808937668800354
1770950690846466300,4.77746630859375,2.1804819107055664,-0.14660754799842834,0.5242747068405151
1770950690865433600,4.79643359375,2.3796236515045166,-1.0372483730316162,0.2701549530029297
1770950690884401000,4.81540087890625,3.5549275875091553,-0.6914989352226257,0.4045451879501343
1770950690903368000,4.834367919921875,2.3038763999938965,1.0189224481582642,0.9274454712867737
1770950690922335200,4.853335205078125,0.9062178730964661,1.5247185230255127,0.388662725687027
1770950690941302300,4.87230224609375,0.6032289862632751,0.11117739230394363,-0.4127918779850006
1770950690960269600,4.89126953125,0.5128209590911865,-1.3915499448776245,-1.641851782798767
1770950690979236600,4.910236572265625,0.8940005898475647,-2.494771718978882,-1.1702642440795898
1770950690998204000,4.929203857421875,0.8316923975944519,-0.6071996092796326,-1.6100867986679077
1770950691017171200,4.948171142578125,-0.022296564653515816,-0.7855721116065979,-1.5392265319824219
1770950691036138200,4.96713818359375,-0.8298597931861877,-0.5045742988586426,-1.4622576236724854
1770950691055105500,4.98610546875,-1.5213587284088135,-0.12217295914888382,-1.6113085746765137
1770950691074072800,5.00507275390625,-2.2336270809173584,0.1588248461484909,-1.6833906173706055
1770950691093039900,5.024039794921875,-2.559828758239746,-0.034208428114652634,-1.3449715375900269
1770950691112007200,5.043007080078125,-2.366795539855957,-0.6487383842468262,-0.660802960395813
1770950691130974200,5.06197412109375,-2.156658172607422,-0.943175196647644,-0.33460119366645813
1770950691149941500,5.08094140625,-2.386343240737915,-0.8539889454841614,-0.1928805559873581
1770950691168908800,5.09990869140625,-2.581820011138916,-0.6010909676551819,-0.1000291109085083
1770950691187875800,5.118875732421875,-2.8823654651641846,-0.3860665261745453,0.2530507445335388
1770950691206843100,5.137843017578125,-3.406487464904785,0.21746785938739777,0.5939132571220398
1770950691225810400,5.156810546875,-3.4626870155334473,0.5595521330833435,0.13942988216876984
1770950691244777500,5.175777587890625,-2.9862124919891357,0.7770199775695801,-0.4286743700504303
1770950691263744800,5.194744873046875,-2.4413211345672607,1.6212351322174072,-0.8061888217926025
1770950691282711800,5.2137119140625,-2.0967934131622314,3.501477003097534,-0.8636100888252258
1770950691301679000,5.23267919921875,-1.8964296579360962,3.380525588989258,-0.5520690679550171
1770950691320646400,5.251646484375,-1.8622212409973145,3.3316564559936523,-0.310166597366333
1770950691339613400,5.270613525390625,-1.9098687171936035,2.2724170684814453,-0.2759581506252289
1770950691358580700,5.289580810546875,-2.4352123737335205,0.9663881063461304,-0.031612250953912735
1770950691377548000,5.308548095703125,-2.950782299041748,-0.021991131827235222,0.5377137064933777
1770950691396515000,5.32751513671875,-3.7265806198120117,-0.6609556674957275,0.8468112945556641
1770950691415482400,5.346482421875,-4.675864219665527,-2.525315046310425,0.9250019788742065
1770950691434449700,5.36544970703125,-3.970926523208618,-2.492328405380249,-0.947909414768219
1770950691453416700,5.384416748046875,-3.1951282024383545,-1.000596523284912,-2.459188938140869
1770950691472384000,5.403384033203125,-2.047924280166626,1.4953969717025757,-2.542266607284546
1770950691491351300,5.422351318359375,-1.1328487396240234,0.3237583339214325,0.6549997329711914
1770950691510318300,5.441318359375,-0.39858928322792053,-0.675616443157196,3.341583013534546
1770950691529285600,5.46028564453125,0.6130027770996094,-1.6041308641433716,2.369086265563965
1770950691548253000,5.4792529296875,0.693636953830719,-1.694538950920105,1.852294683456421
1770950691567220200,5.49822021484375,-0.1542433500289917,-0.8075632452964783,3.0043857097625732
1770950691586187300,5.517187255859375,-2.134666919708252,1.3353503942489624,2.9066474437713623
1770950691605154600,5.536154541015625,-3.7058112621307373,3.1496188640594482,2.1503968238830566
1770950691624121900,5.555121826171875,-3.2256715297698975,1.29503333568573,1.4320197105407715
1770950691643089000,5.5740888671875,-1.9672900438308716,-0.730594277381897,0.9091194868087769
1770950691662056200,5.59305615234375,-0.6380482912063599,-0.5192350745201111,1.4637846946716309
1770950691681023500,5.6120234375,0.7742711305618286,-0.370184063911438,2.1589488983154297
1770950691699990800,5.63099072265625,1.370475172996521,-0.6267472505569458,1.8119776248931885
1770950691718957800,5.649957763671875,1.1004729270935059,-0.9199623465538025,1.6800308227539062
1770950691737925000,5.668925048828125,0.9782999157905579,-1.4391974210739136,1.7765475511550903
1770950691756892400,5.687892333984375,0.8756746649742126,-1.886350393295288,1.7936517000198364
1770950691775859500,5.706859375,0.68386310338974,-1.626121997833252,1.5358667373657227
1770950691794826800,5.72582666015625,0.41263917088508606,-1.2034035921096802,1.0190751552581787
1770950691813794000,5.7447939453125,0.08155044913291931,-0.8405499458312988,0.15286891162395477
1770950691832761300,5.76376123046875,-0.21655155718326569,-0.7525854110717773,-0.7744238376617432
1770950691851728600,5.782728759765625,-0.3399462401866913,-0.934623122215271,-1.606421709060669
1770950691870695700,5.80169580078125,-0.4108065664768219,-1.1459823846817017,-2.4762930870056152
1770950691889663000,5.8206630859375,-0.6282744407653809,-1.5674790143966675,-3.2032222747802734
1770950691908630300,5.83963037109375,-1.2818996906280518,-1.1606431007385254,-2.2954771518707275
1770950691927597600,5.85859765625,-1.0228930711746216,1.7617340087890625,0.5645917654037476
1770950691946564900,5.87756494140625,0.6911935210227966,-0.924849271774292,0.8419243693351746
1770950691965532000,5.896531982421875,1.1505638360977173,-2.249204158782959,0.652556300163269
1770950691984499200,5.915499267578125,0.7730493545532227,-1.1679733991622925,0.25671592354774475
1770950692003466500,5.934466552734375,-0.6502655744552612,0.1747073233127594,-0.07803797721862793
1770950692022433800,5.953433837890625,-1.3833032846450806,1.7727296352386475,-1.1421644687652588
1770950692041401000,5.972401123046875,-0.528092622756958,3.473377227783203,-0.8856012225151062
1770950692060368400,5.991368408203125,0.12553271651268005,1.3829978704452515,-0.7866411209106445
1770950692079335400,6.01033544921875,0.04245510324835777,-0.0769689604640007,-1.3987276554107666
1770950692098302700,6.029302734375,-0.16646064817905426,0.8747583627700806,-1.7970114946365356
1770950692117270000,6.04827001953125,-0.8775072693824768,2.6560399532318115,-1.6015347242355347
1770950692136237300,6.0672373046875,-1.859777808189392,3.0812020301818848,-1.0432043075561523
1770950692155204600,6.08620458984375,-2.313039541244507,1.9547673463821411,-0.4787652790546417
1770950692174172000,6.105171875,-2.352134943008423,-1.5027273893356323,-0.5642863512039185
1770950692193139200,6.12413916015625,-2.1077890396118164,-4.754971504211426,-1.0554215908050537
1770950692212106200,6.143106201171875,-1.5494585037231445,-5.078729629516602,-1.8642065525054932
1770950692231073500,6.162073486328125,-0.5256491303443909,-1.334128737449646,-1.5929826498031616
1770950692250040800,6.181040771484375,0.527481734752655,1.1081087589263916,-0.7267763614654541
1770950692269008100,6.200008056640625,0.72173672914505,1.5748094320297241,-0.7878628373146057
1770950692287975400,6.218975341796875,0.5910117030143738,1.351232886314392,-0.9491311311721802
1770950692306942700,6.237942626953125,0.3759872615337372,1.351232886314392,-1.1201733350753784
1770950692325910000,6.256909912109375,0.14019346237182617,0.8906408548355103,-1.4170535802841187
1770950692354360800,6.28536083984375,-0.4621191918849945,-0.35185810923576355,-1.5783218145370483
1770950692373328100,6.304328125,-0.7651081085205078,-0.7819069027900696,-1.0908517837524414
1770950692392295400,6.32329541015625,-0.8836159110069275,-0.6157516837120056,-0.6546943187713623
1770950692411262700,6.3422626953125,-0.7968730926513672,0.07330377399921417,-0.7279980778694153
1770950692430230000,6.36122998046875,-0.6979129910469055,0.31520622968673706,-0.9699005484580994
1770950692449197300,6.380197265625,-0.5965094566345215,-0.059864748269319534,-0.6534726023674011
1770950692468164600,6.39916455078125,-0.49510589241981506,-0.2052505612373352,-0.07803797721862793
1770950692487132000,6.4181318359375,-0.18845178186893463,0.1698204129934311,0.41065385937690735
1770950692506099200,6.43709912109375,0.29046618938446045,0.45937031507492065,0.3678933084011078
1770950692525066500,6.45606640625,0.5873464941978455,-0.06841685622930527,0.023365577682852745
1770950692544033800,6.47503369140625,0.68386310338974,-0.9615011811256409,0.22006404399871826
1770950692563001000,6.4940009765625,0.8463531732559204,-0.5937605500221252,1.0202969312667847
1770950692581968400,6.512968505859375,1.1053597927093506,0.16859868168830872,2.017228126525879
1770950692600935700,6.531935791015625,1.0454950332641602,-0.22846342623233795,2.8589999675750732
1770950692619903000,6.550903076171875,1.0748165845870972,-0.028099779039621353,3.565159559249878
1770950692638870300,6.569870361328125,0.8378010392189026,0.6010909676551819,3.5382814407348633
1770950692657837600,6.588837646484375,0.5604684352874756,1.3536763191223145,2.8589999675750732
1770950692676804900,6.607804931640625,0.4272999167442322,2.3933682441711426,1.8498512506484985
1770950692695772200,6.626772216796875,0.43951719999313354,2.5754058361053467,1.1583523750305176
1770950692714739500,6.645739501953125,0.4053087830543518,1.3573415279388428,0.8773545622825623
1770950692733706800,6.664706787109375,0.3955349326133728,0.4667007029056549,0.929888904094696
1770950692752674000,6.683674072265625,1.379027247428894,1.0128138065338135,1.19866943359375
1770950692771641300,6.702641357421875,1.9483531713485718,0.8210022449493408,1.3098467588424683
1770950692790608600,6.721608642578125,1.6221513748168945,-0.7757982611656189,1.5651882886886597
1770950692809576000,6.740575927734375,1.2605195045471191,-1.626121997833252,1.8412991762161255
1770950692828543200,6.759543212890625,1.0296125411987305,-1.9401065111160278,1.8290818929672241
1770950692847510500,6.778510498046875,0.859792172908783,-1.7727296352386475,1.4576760530471802
1770950692866478000,6.79747802734375,0.7290670871734619,-1.5039490461349487,0.9042325615882874
1770950692885445400,6.8164453125,0.499381959438324,-1.0885610580444336,0.28725916147232056
1770950692904412700,6.83541259765625,0.09987638890743256,-0.7318159937858582,-0.40546149015426636
1770950692923380000,6.8543798828125,-0.19700388610363007,-0.6511818766593933,-1.1299470663070679
1770950692942347300,6.87334716796875,-0.4718930423259735,-0.7122683525085449,-1.7493640184402466
1770950692961314600,6.892314453125,-0.6466003656387329,-0.5619956254959106,-2.4494149684906006
1770950692980281900,6.91128173828125,-0.7162389755249023,-0.41294458508491516,-3.1360270977020264
1770950692999249200,6.930249267578125,-1.201265573501587,0.32620179653167725,-2.5838053226470947
1770950693018216400,6.949216552734375,-0.6514872908592224,1.158199667930603,-0.4641045033931732
1770950693037183700,6.968183837890625,0.562911868095398,0.18203771114349365,0.4130973219871521
1770950693056151000,6.987151123046875,0.7095194458961487,-0.13561198115348816,0.3862192630767822
1770950693075118600,7.00611865234375,-0.06261363625526428,0.003665188793092966,0.39110618829727173
1770950693094086000,7.0250859375,-0.41813695430755615,1.2400555610656738,0.6745474338531494
1770950693113053200,7.04405322265625,0.16584978997707367,1.5222749710083008,0.4607447683811188
1770950693132020500,7.0630205078125,0.14996729791164398,0.5974257588386536,-0.6058251261711121
1770950693150987800,7.08198779296875,-0.3533852696418762,-0.35063639283180237,-1.2704460620880127
1770950693169955000,7.100955078125,-0.6221657991409302,-0.06841685622930527,-0.9039271473884583
1770950693188922600,7.119922607421875,-1.0778708457946777,-0.3139844834804535,-0.30283620953559875
1770950693207890000,7.138889892578125,-1.1169662475585938,-0.9602794051170349,0.23228132724761963
1770950693226857200,7.157857177734375,-0.6856957077980042,-0.943175196647644,0.18096868693828583
1770950693245824500,7.176824462890625,-0.18723005056381226,-0.5937605500221252,-0.3358229100704193
1770950693264791800,7.195791748046875,0.08888082206249237,-0.3481929302215576,-0.9014837145805359
1770950693283759000,7.214759033203125,0.18417572975158691,-0.1331685185432434,-1.2667808532714844
1770950693302726700,7.2337265625,0.0925460159778595,0.3090975880622864,-1.2899936437606812
1770950693321694000,7.25269384765625,-0.003970621153712273,0.6511818766593933,-1.1690424680709839
1770950693340661200,7.2716611328125,-0.16646064817905426,0.47036588191986084,-1.0713040828704834
1770950693359628500,7.290628662109375,-0.21166464686393738,-0.028099779039621353,-0.8257364630699158
1770950693388079600,7.31907958984375,-0.22754712402820587,-0.06841685622930527,-0.18555018305778503
1770950693407047000,7.338046875,-0.10659590363502502,0.17104214429855347,-0.12446369975805283
1770950693426014200,7.35701416015625,0.022907428443431854,0.6707295179367065,-0.2136499583721161
1770950693444981500,7.3759814453125,0.07788526266813278,0.7660244107246399,-0.15012001991271973
1770950693463949000,7.394948974609375,0.03756818547844887,0.49113526940345764,0.1870773434638977
1770950693482916400,7.413916259765625,-0.08460476994514465,0.018325943499803543,0.5572614073753357
1770950693501883600,7.432883544921875,-0.1383608728647232,-0.1588248461484909,0.6403390169143677
1770950693520851200,7.451851318359375,-0.12370011955499649,-0.059864748269319534,0.5609265565872192
1770950693539818500,7.470818603515625,-0.1383608728647232,0.06719512492418289,0.513279139995575
1770950693558785800,7.489785888671875,-0.10170898586511612,0.758694052696228,0.26282456517219543
1770950693577753000,7.508753173828125,-0.0870482325553894,1.2388337850570679,0.10888664424419403
1770950693596720600,7.527720703125,-0.1945604383945465,1.1508692502975464,0.22495095431804657
1770950693615688000,7.54668798828125,-0.19944734871387482,0.3481929302215576,0.47784897685050964
1770950693634655200,7.5656552734375,-0.13469567894935608,-0.0513126403093338,0.9372192621231079
1770950693653622500,7.58462255859375,0.3442223072052002,0.637742817401886,1.9121594429016113
1770950693672590000,7.603590087890625,0.850018322467804,0.8002328872680664,2.584110736846924
1770950693691557400,7.622557373046875,0.878118097782135,0.5314523577690125,2.568228244781494
1770950693710524700,7.641524658203125,1.1346813440322876,0.08796452730894089,2.885877847671509
1770950693729492000,7.660491943359375,1.416900873184204,-0.1282816082239151,2.7698135375976562
1770950693748459500,7.67945947265625,1.8591669797897339,-0.09407317638397217,2.3263258934020996
1770950693767426800,7.6984267578125,1.8713842630386353,-0.15515965223312378,1.800982117652893
1770950693786394000,7.71739404296875,1.0491602420806885,-0.4361574649810791,1.004414439201355
1770950693805361700,7.736361572265625,0.39186975359916687,-0.09162971377372742,0.3630063831806183
1770950693824329000,7.755328857421875,0.0925460159778595,0.46059203147888184,-0.3052796721458435
1770950693843296300,7.774296142578125,-0.13958260416984558,0.25534147024154663,-0.7903063297271729
1770950693862263800,7.793263916015625,-0.26419901847839355,-0.046425722539424896,-0.985783040523529
1770950693881231000,7.812231201171875,-0.40714138746261597,-0.3078758418560028,-0.9845613241195679
1770950693900198400,7.831198486328125,-0.6343830823898315,-0.7330377101898193,-0.9063706398010254
1770950693919166000,7.850166015625,-0.8738420605659485,-1.1337649822235107,-0.8403972387313843
1770950693938133200,7.86913330078125,-1.14017915725708,-1.2522728443145752,-0.8575014472007751
1770950693957100500,7.8881005859375,-1.3906337022781372,-1.2596031427383423,-0.9466876983642578
1770950693976067800,7.90706787109375,-1.489593744277954,-1.5234967470169067,-1.068860650062561
1770950693995035400,7.926035400390625,-1.3918553590774536,-2.079383611679077,-1.1824815273284912
1770950694014002700,7.945002685546875,-0.7968730926513672,-2.8991641998291016,-1.243567943572998
1770950694032970000,7.963969970703125,0.416304349899292,-3.3683083057403564,-0.856279730796814
1770950694051937500,7.9829375,0.2574795186519623,-1.8472551107406616,-1.2936588525772095
1770950694070904800,8.00190478515625,0.4260781705379486,0.3860665261745453,-1.5392265319824219
1770950694089872400,8.020872314453126,0.7290670871734619,1.3952151536941528,-1.096960425376892
1770950694108839700,8.039839599609374,0.3698786199092865,1.1704169511795044,-0.268627792596817
1770950694127807000,8.058806884765625,0.14752385020256042,0.36163195967674255,-0.004734201822429895
1770950694146774500,8.0777744140625,0.14019346237182617,-0.8930842876434326,-0.8049670457839966
1770950694165741800,8.096741943359374,-0.12003492563962936,-2.0488405227661133,-1.410944938659668
1770950694184709000,8.115709228515625,-0.13958260416984558,1.9620976448059082,0.25060728192329407
1770950694203676700,8.1346767578125,0.43951719999313354,3.903425931930542,-0.06337722390890121
1770950694222644000,8.15364404296875,0.7693842053413391,1.656665325164795,-0.9088140726089478
1770950694241611500,8.172611572265625,0.6142245531082153,1.7458515167236328,0.014813470654189587
1770950694260578800,8.191578857421876,0.0412333719432354,0.4972439408302307,0.14798198640346527
1770950694279546000,8.210546142578124,-0.40958482027053833,-1.9230023622512817,-0.6253728270530701
1770950694298513700,8.229513671875,-0.4401280879974365,-2.6242752075195312,-1.0822997093200684
1770950694317481000,8.24848095703125,-0.43890634179115295,-0.934623122215271,-1.2961024045944214
1770950694336448500,8.267448486328124,-0.041844237595796585,1.4734058380126953,-0.9014837145805359
1770950694355415800,8.286415771484375,-0.06750056147575378,1.5870267152786255,-0.7487674951553345
1770950694374383000,8.305383056640625,-0.24220788478851318,0.6035344004631042,-0.6913462281227112
1770950694393350700,8.3243505859375,-0.47922343015670776,0.020769402384757996,-0.2539670467376709
1770950694412318000,8.34331787109375,-0.5109884142875671,0.0720820426940918,0.4228711426258087
1770950694431285500,8.362285400390626,-0.3607156574726105,0.18081597983837128,0.6256782412528992
1770950694450252800,8.381252685546874,-0.1750127524137497,0.3555232882499695,0.39599308371543884
1770950694469220000,8.40022021484375,0.0925460159778595,1.082452416419983,0.18585561215877533
1770950694488187600,8.419187744140626,0.41874781250953674,2.1807873249053955,-0.1207985132932663
1770950694507155000,8.438155029296874,0.46883872151374817,2.2504258155822754,-0.1049160286784172
1770950694526122500,8.45712255859375,0.27458372712135315,1.499062180519104,0.6659952998161316
1770950694545089800,8.47608984375,0.05345066636800766,1.0299180746078491,1.9268202781677246
1770950694564057300,8.495057373046874,0.17562362551689148,0.2419024556875229,3.059363603591919
1770950694583024600,8.514024658203125,0.43340855836868286,-0.08918625861406326,3.464977741241455
1770950694601992000,8.532991943359375,0.46517354249954224,0.5900954008102417,3.213301420211792
1770950694620959500,8.55195947265625,0.9880737662315369,0.5302306413650513,3.118006467819214
1770950694639926800,8.5709267578125,1.8359540700912476,0.3555232882499695,2.937190532684326
1770950694658894300,8.589894287109376,1.8518365621566772,0.056199558079242706,2.140622854232788
1770950694677861600,8.608861572265624,1.712559461593628,-0.1233946830034256,1.8229732513427734
1770950694696829200,8.6278291015625,1.1908808946609497,-0.08552107214927673,0.8321505188941956
1770950694715796500,8.64679638671875,0.42852163314819336,0.006108647678047419,-0.0902552679181099
1770950694734764000,8.665763916015624,0.03634645417332649,0.4557051360607147,-0.7951932549476624
1770950694753731300,8.6847314453125,-0.14691297709941864,0.3127627670764923,-1.401171088218689
1770950694772698600,8.70369873046875,-0.28985533118247986,-0.20402882993221283,-1.59664785861969
1770950694791666200,8.722666259765624,-0.5061014890670776,-0.5937605500221252,-1.4891356229782104
1770950694810633500,8.741633544921875,-0.8701768517494202,-0.8197805285453796,-1.3193151950836182
1770950694829601000,8.76060107421875,-1.229365348815918,-0.9822705388069153,-1.2276854515075684
1770950694848568300,8.779568359375,-1.580001711845398,-1.2730422019958496,-1.3571888208389282
1770950694867536000,8.798535888671875,-1.8719950914382935,-1.7910555601119995,-1.7640247344970703
1770950694886503200,8.817503173828126,-1.9123121500015259,-2.3982551097869873,-2.0572397708892822
1770950694905470700,8.836470703125,-1.0522146224975586,-3.043328285217285,-1.2899936437606812
1770950694924438000,8.85543798828125,-0.09804379940032959,-3.777587890625,0.15286891162395477
1770950694943405600,8.874405517578126,-0.1078176349401474,-2.0024147033691406,-0.3565923273563385
1770950694962372900,8.893372802734374,0.5348120927810669,0.287106454372406,-1.1152863502502441
1770950694981340400,8.91234033203125,0.9233221411705017,1.1337649822235107,-1.1812597513198853
1770950695000307700,8.9313076171875,0.7718276381492615,1.0054833889007568,-0.35414886474609375
1770950695019275300,8.950275146484374,0.5494728684425354,0.675616443157196,0.3935496211051941
1770950695038242600,8.96924267578125,0.416304349899292,-1.499062180519104,-0.9650136232376099
1770950695057210000,8.988210205078126,-0.32039856910705566,-0.40927940607070923,-0.6400335431098938
1770950695076177400,9.007177490234374,-0.15302163362503052,1.5491530895233154,0.20906847715377808
1770950695095145000,9.02614501953125,0.15607595443725586,3.1190755367279053,-0.3480401933193207
1770950695114112300,9.0451123046875,0.12675444781780243,1.452636480331421,-0.30894485116004944
1770950695133079800,9.064079833984374,0.03756818547844887,0.9505056142807007,0.3092502951622009
1770950695152047000,9.083047119140625,-0.23365578055381775,-0.6743947267532349,-0.36025750637054443
1770950695171014700,9.1020146484375,-0.24709481000900269,-1.0091485977172852,-0.7328850030899048
1770950695189982200,9.120982177734374,-0.2666424810886383,-0.3897317349910736,-0.8330668210983276
1770950695208949500,9.139949462890625,-0.2202167510986328,-0.3799578845500946,-1.1226167678833008
1770950695227916800,9.158916748046876,-0.0821613147854805,-0.39828383922576904,-1.3119847774505615
1770950695246884400,9.17788427734375,-0.032070402055978775,-0.0977383628487587,-1.26189386844635
1770950695265851600,9.1968515625,-0.022296564653515816,0.4202749729156494,-0.8061888217926025
1770950695284819200,9.215819091796876,-0.1432477980852127,0.5436696410179138,-0.3199404180049896
1770950695303786800,9.234786865234375,-0.23243404924869537,0.7513636946678162,0.02458730712532997
1770950695322754000,9.253754150390625,-0.28985533118247986,0.8161153197288513,0.2860374450683594
1770950695341721600,9.2727216796875,-0.3741546869277954,0.7648026943206787,0.5523744821548462
1770950695360689000,9.29168896484375,-0.2776380479335785,1.0189224481582642,0.42653632164001465
1770950695379656400,9.310656494140625,0.02779434807598591,1.237612009048462,0.020922118797898293
1770950695398623700,9.329623779296876,0.08888082206249237,1.3390156030654907,-0.08414662629365921
1770950695417591300,9.34859130859375,0.07055488228797913,1.1423171758651733,0.3935496211051941
1770950695436558600,9.36755859375,0.035124726593494415,0.768467903137207,1.2805253267288208
1770950695455526100,9.386526123046876,0.15118902921676636,0.3249800503253937,2.290895700454712
1770950695474493700,9.40549365234375,0.47494736313819885,-0.08796452730894089,3.06547212600708
1770950695493461000,9.4244609375,0.6557633280754089,0.13683371245861053,3.210858106613159
1770950695512428500,9.443428466796876,0.731510579586029,0.7745765447616577,3.0666940212249756
1770950695531395800,9.462395751953125,1.2898409366607666,0.6255255341529846,3.124115228652954
1770950695550363400,9.48136328125,1.2568542957305908,-0.26878049969673157,3.224297046661377
1770950695569330700,9.50033056640625,1.5329651832580566,0.35796675086021423,2.1784965991973877
1770950695588298200,9.51929833984375,1.5659518241882324,0.6230821013450623,1.215773582458496
1770950695607265500,9.538265625,1.2116502523422241,0.6243038177490234,0.3727802336215973
1770950695626233000,9.557233154296876,0.68386310338974,0.43493571877479553,-0.31383177638053894
1770950695645200600,9.57620068359375,0.2000582218170166,0.3787361681461334,-0.7890845537185669
1770950695664168000,9.59516796875,-0.09682206809520721,0.21258094906806946,-1.1800380945205688
1770950695683135500,9.614135498046876,-0.13958260416984558,-0.11728604137897491,-1.5416699647903442
1770950695702102800,9.633102783203125,-0.1945604383945465,-0.43982264399528503,-1.789681077003479
1770950695721070300,9.6520703125,-0.43890634179115295,-0.6719512343406677,-1.8593196868896484
1770950695740037600,9.67103759765625,-0.7516691088676453,-0.8491020202636719,-1.7664681673049927
1770950695759005200,9.690005126953125,-1.1927134990692139,-1.2009601593017578,-1.836106777191162
1770950695777972700,9.70897265625,-1.685070514678955,-1.6249003410339355,-1.9802708625793457
1770950695796940000,9.72793994140625,-1.7925827503204346,-1.858250617980957,-2.0328052043914795
1770950695815907600,9.746907470703125,-0.9789108037948608,-2.8625123500823975,-0.9711222648620605
1770950695834875000,9.765875,-0.6453786492347717,-3.266904830932617,-0.06215549260377884
1770950695853842400,9.784842529296874,-0.3081812858581543,-1.6346741914749146,-0.7463240623474121
1770950695872810000,9.80381005859375,0.30146175622940063,0.11972949653863907,-1.528230905532837
1770950695891777300,9.82277734375,0.8121446967124939,1.0482439994812012,-1.439044713973999
1770950695910744800,9.841744873046874,0.9367611408233643,0.94439697265625,-0.7231112122535706
1770950695929712000,9.860712158203125,0.7925970554351807,0.6010909676551819,-0.31383177638053894
1770950695948679700,9.8796796875,0.18417572975158691,0.9175189137458801,0.3825540542602539
1770950695967647200,9.898647216796874,-0.31184646487236023,0.8503237962722778,0.8040507435798645
1770950695986614500,9.917614501953125,-0.17256930470466614,-0.8918625712394714,-0.19043709337711334
1770950696005582000,9.93658203125,0.1340848207473755,0.5314523577690125,-1.4427099227905273
1770950696024549400,9.95554931640625,0.2367101013660431,2.7598869800567627,0.4644099473953247
1770950696043517000,9.974516845703125,0.2684750556945801,0.1026252806186676,0.22983787953853607
1770950696062484500,9.993484375,0.1805105358362198,-0.5790998339653015,-0.14278964698314667
1770950696081451800,10.01245166015625,-0.08093958348035812,-0.6878337264060974,-0.8697187304496765
1770950696100419300,10.03141943359375,-0.08826996386051178,-0.21502439677715302,-1.1311688423156738
1770950696119387000,10.050386962890625,-0.20433427393436432,-0.017104214057326317,-1.1397209167480469
1770950696138354200,10.069354248046874,-0.22388194501399994,-0.07452550530433655,-1.2570070028305054
1770950696157321700,10.08832177734375,-0.17867794632911682,0.43493571877479553,-1.3119847774505615
1770950696176289000,10.1072890625,-0.14569124579429626,1.3109158277511597,-1.2032508850097656
1770950696195256600,10.126256591796874,-0.21777328848838806,1.525940179824829,-0.7768672704696655
1770950696214224100,10.14522412109375,-0.3790415823459625,1.0592395067214966,-0.09147699922323227
1770950696233191400,10.16419140625,-0.49999281764030457,0.5693259835243225,0.36911505460739136
1770950696252159000,10.183158935546874,-0.4828886091709137,0.13561198115348816,0.6061305999755859
1770950696271126500,10.20212646484375,-0.4682278633117676,0.28466299176216125,0.6855430006980896
1770950696290093800,10.22109375,-0.1542433500289917,1.0494656562805176,0.388662725687027
1770950696309061400,10.240061279296874,0.06322450190782547,1.442862629890442,0.23716825246810913
1770950696328029000,10.25902880859375,0.20372340083122253,1.331685185432434,0.5939132571220398
1770950696346996200,10.277996337890626,0.1646280586719513,0.8637627959251404,1.3489421606063843
1770950696365963800,10.2969638671875,0.30024003982543945,0.3042106628417969,2.4106252193450928
1770950696384931000,10.31593115234375,0.6997455954551697,0.16859868168830872,3.174206018447876
1770950696403898600,10.334898681640626,0.9453132748603821,0.36774060130119324,2.813795804977417
1770950696422866200,10.3538662109375,0.9453132748603821,0.1588248461484909,2.956738233566284
1770950696441833500,10.37283349609375,1.0943642854690552,-0.49113526940345764,3.830274820327759
1770950696460801000,10.391801025390626,1.0943642854690552,-0.5387827157974243,3.847379207611084
1770950696479768600,10.4107685546875,1.302058219909668,0.6499601006507874,2.3483169078826904
1770950696498735900,10.42973583984375,1.359479546546936,0.8539889454841614,1.0691660642623901
1770950696517703400,10.448703369140626,1.1994329690933228,0.9541707634925842,0.22128576040267944
1770950696536671000,10.4676708984375,0.7938187718391418,0.5070177912712097,-0.31871870160102844
1770950696555638300,10.48663818359375,0.3588830530643463,0.25045454502105713,-0.69012451171875
1770950696574605800,10.505605712890626,0.054672397673130035,0.09285144507884979,-1.1238384246826172
1770950696593573400,10.524573486328125,-0.11636973917484283,0.03543015569448471,-1.5563308000564575
1770950696612540700,10.543540771484375,-0.29962918162345886,-0.10873392969369888,-1.917962670326233
1770950696631508200,10.56250830078125,-0.5158752799034119,-0.3689623177051544,-2.1244349479675293
1770950696650475800,10.581475830078125,-0.8494074940681458,-0.6633991599082947,-2.134208917617798
1770950696669443000,10.600443115234375,-1.4773764610290527,-1.1166608333587646,-2.087783098220825
1770950696688410600,10.61941064453125,-2.1969752311706543,-1.8069380521774292,-2.0804526805877686
1770950696707378200,10.638378173828125,-2.273944139480591,-2.487441301345825,-1.8764238357543945
1770950696726345500,10.657345458984375,-0.9556979537010193,-3.9327473640441895,-0.19043709337711334
1770950696745313000,10.67631298828125,-0.674700140953064,-4.065916061401367,-0.30283620953559875
1770950696764280600,10.695280517578125,-0.016187917441129684,-0.9480621218681335,-1.2606722116470337
1770950696783248000,10.714247802734375,0.796262264251709,1.626121997833252,-1.5685480833053589
1770950696802215400,10.73321533203125,1.0112866163253784,2.5973970890045166,-0.48365217447280884
1770950696821183000,10.752182861328125,0.6973021626472473,1.6090178489685059,0.9042325615882874
1770950696840150500,10.771150634765625,0.4529562294483185,-1.0641264915466309,0.20662501454353333
1770950696859117800,10.790117919921874,-0.10170898586511612,-3.1813838481903076,-1.2093595266342163
1770950696878085400,10.80908544921875,-0.3643808364868164,-0.06597339361906052,-0.6082686185836792
1770950696897053000,10.828052978515625,0.713184654712677,5.348731994628906,-0.40546149015426636
1770950696916020200,10.847020263671874,0.731510579586029,0.7525854110717773,-1.0835213661193848
1770950696934987800,10.86598779296875,0.2513708472251892,-0.10751219838857651,0.4766272306442261
1770950696953955300,10.884955322265625,-0.3484983444213867,-0.9847140312194824,0.8871283531188965
1770950696972923000,10.9039228515625,-0.6869174242019653,-2.0891575813293457,-0.041386090219020844
1770950696991890200,10.92289013671875,-0.4376846253871918,-2.20155668258667,-1.254563570022583
1770950697010857700,10.941857666015625,-0.2568686306476593,-0.27366742491722107,-1.5722131729125977
1770950697029825300,10.9608251953125,-0.1029307171702385,1.2681553363800049,-1.5795435905456543
1770950697048792600,10.97979248046875,0.05833758786320686,1.5442661046981812,-1.585652232170105
1770950697067760000,10.998760009765626,0.007024944759905338,1.0054833889007568,-1.3327542543411255
1770950697086727400,11.0177275390625,-0.25809037685394287,0.5229002237319946,-0.6534726023674011
1770950697105695000,11.036695068359375,-0.47555822134017944,0.46425724029541016,0.2286161482334137
1770950697124662500,11.05566259765625,-0.6258309483528137,-0.07330377399921417,0.7246383428573608
1770950697143630000,11.074630126953124,-0.528092622756958,-0.0256563201546669,0.7283035516738892
1770950697162597400,11.093597412109375,0.11575887352228165,1.3976585865020752,0.23105959594249725
1770950697181565000,11.11256494140625,0.457843154668808,2.8185300827026367,0.3678933084011078
1770950697200532500,11.131532470703124,0.602007269859314,2.8319690227508545,1.187673807144165
1770950697219500000,11.1505,0.46517354249954224,1.7043126821517944,2.0685408115386963
1770950697238467300,11.16946728515625,0.36621344089508057,0.6548470258712769,3.148549795150757
1770950697257435000,11.188434814453124,0.3136790692806244,1.033583164215088,3.4686429500579834
1770950697276402400,11.20740234375,0.5348120927810669,1.0384701490402222,2.722166061401367
1770950697295370000,11.226369873046876,0.9563088417053223,-0.2260199636220932,2.651305913925171
1770950697314337300,11.245337158203125,1.4291181564331055,0.328645259141922,2.9042038917541504
1770950697333304800,11.264304931640625,2.0069961547851562,0.40805765986442566,1.8180862665176392
1770950697352272400,11.2832724609375,1.777311086654663,-0.008552107028663158,1.3794853687286377
1770950697371240000,11.302239990234375,1.0699297189712524,-0.2822195291519165,0.7979421019554138
1770950697390207200,11.321207275390625,0.4150826036930084,-0.15638138353824615,-0.2136499583721161
1770950697409174800,11.3401748046875,0.025350889191031456,0.15760311484336853,-0.9344704151153564
1770950697428142300,11.359142333984375,-0.17867794632911682,0.04276053607463837,-1.373071312904358
1770950697447110000,11.37810986328125,-0.24953825771808624,-0.1490510106086731,-1.7029383182525635
1770950697466077200,11.3970771484375,-0.2984074354171753,-0.34697118401527405,-2.0193662643432617
1770950697485044700,11.416044677734375,-0.5378664135932922,-0.44959646463394165,-2.176969289779663
1770950697504012300,11.43501220703125,-0.9398154616355896,-0.2577849328517914,-2.363893985748291
1770950697522979800,11.453979736328124,-1.4676026105880737,-0.14538581669330597,-2.6424484252929688
1770950697541947100,11.472947021484375,-2.0919065475463867,-0.554665207862854,-2.732856273651123
1770950697560914700,11.491914794921875,-2.2653920650482178,-2.0378448963165283,-1.965610146522522
1770950697579882200,11.51088232421875,-1.489593744277954,-4.072024822235107,-0.1623373180627823
1770950697598849800,11.529849853515625,-0.9202677607536316,-3.827678680419922,-0.11224640160799026
1770950697617817000,11.548817138671875,0.2049451321363449,-0.0256563201546669,-0.9833396077156067
1770950697636784600,11.56778466796875,1.0687079429626465,2.086714029312134,-1.6980513334274292
1770950697655752200,11.586752197265625,1.2702933549880981,2.310290575027466,-1.2692242860794067
1770950697674719700,11.6057197265625,1.038164734840393,2.466671943664551,-0.5899426341056824
1770950697693687000,11.62468701171875,0.457843154668808,-1.0592395067214966,-1.2887719869613647
1770950697712654600,11.643654541015625,-1.1731657981872559,-0.7990111112594604,0.43753188848495483
1770950697731622100,11.6626220703125,-1.0986403226852417,-0.1954767256975174,1.567631721496582
1770950697750589700,11.681589599609374,-0.8542944192886353,-1.8570289611816406,-1.0236566066741943
1770950697769557000,11.700556884765625,0.7082977294921875,-0.3738492429256439,-3.101818561553955
1770950697788524500,11.719524658203126,0.6667588949203491,3.321882724761963,-0.6412553191184998
1770950697807492000,11.7384921875,0.281914085149765,1.666439175605774,-0.11102467030286789
1770950697826459400,11.75745947265625,-0.03695731982588768,0.8222240209579468,-0.5471821427345276
1770950697845427000,11.776427001953126,-0.08460476994514465,1.1814124584197998,-1.437822937965393
1770950697864394500,11.79539453125,0.07422006875276566,1.5894701480865479,-2.3113596439361572
1770950697883362000,11.814362060546875,0.10109812021255493,0.9957095980644226,-2.581361770629883
1770950697902329600,11.83332958984375,-0.15668681263923645,0.44470956921577454,-2.290590286254883
1770950697921297000,11.852296875,-0.5904008150100708,0.5119046568870544,-1.8043417930603027
1770950697940264400,11.871264404296875,-0.9666935205459595,0.4935787320137024,-1.4121665954589844
1770950697959232000,11.89023193359375,-1.0387755632400513,0.5045742988586426,-1.1458295583724976
1770950697978199600,11.909199462890625,-1.0852012634277344,1.2168426513671875,-0.7646499872207642
1770950697997167000,11.9281669921875,-1.0375537872314453,1.9046764373779297,-0.1977674663066864
1770950698016134400,11.947134521484376,-0.96180659532547,1.4453060626983643,-0.46654796600341797
1770950698035102000,11.96610205078125,-1.0705405473709106,0.4263836145401001,-0.8782708644866943
1770950698054069500,11.985069580078125,-0.6612611413002014,-0.017104214057326317,-0.36880961060523987
1770950698073036800,12.004036865234376,-0.23243404924869537,0.5534434914588928,0.20051635801792145
1770950698092004400,12.02300439453125,-0.08949168771505356,0.22724169492721558,0.8394809365272522
1770950698110972000,12.041971923828125,0.15485422313213348,-0.27488914132118225,1.9353723526000977
1770950698129939500,12.060939453125,0.9392045736312866,-0.554665207862854,2.598771572113037
1770950698148907000,12.079906982421875,1.9288055896759033,-0.16004657745361328,2.6219842433929443
1770950698167874300,12.098874267578125,2.0192134380340576,-0.7843503952026367,2.944520950317383
1770950698186841900,12.117841796875,2.01188325881958,-0.9932661056518555,2.8345654010772705
1770950698205809400,12.136809326171875,1.728441834449768,0.021991131827235222,2.1980443000793457
1770950698224777000,12.15577685546875,1.8542799949645996,1.654221773147583,1.8571816682815552
1770950698243744300,12.174744140625,1.5977168083190918,4.047590255737305,1.6287182569503784
1770950698262711800,12.1937119140625,1.3851358890533447,4.879587650299072,0.717307984828949
1770950698281679400,12.212679443359375,1.477987289428711,3.9364125728607178,-0.3761399984359741
1770950698300647000,12.23164697265625,1.508530616760254,1.4147628545761108,-0.4237874448299408
1770950698319614200,12.2506142578125,1.6563597917556763,-0.46059203147888184,1.2695297002792358
1770950698338581800,12.269581787109376,1.2360849380493164,-1.4025455713272095,2.9604034423828125
1770950698357549300,12.28854931640625,0.7180715203285217,-3.0445499420166016,2.8626651763916016
1770950698376516900,12.307516845703125,0.2415970265865326,-3.230252981185913,2.0746495723724365
1770950698395484400,12.326484375,-0.3081812858581543,-3.2290313243865967,1.6507093906402588
1770950698414451700,12.34545166015625,-0.5244274139404297,-2.5656321048736572,0.9164499044418335
1770950698433419300,12.364419189453125,-0.4266890585422516,-1.7299690246582031,-0.29672756791114807
1770950698452386800,12.38338671875,-0.20311254262924194,-1.5418226718902588,-1.4879138469696045
1770950698471354400,12.402354248046874,-0.04550942778587341,-1.8545855283737183,-2.1219916343688965
1770950698490321700,12.42132177734375,-0.3741546869277954,-1.1814124584197998,-1.8825324773788452
1770950698509289200,12.440289306640626,-0.7944296598434448,1.8154901266098022,0.37400195002555847
1770950698528256800,12.4592568359375,0.7363975048065186,0.2626718580722809,0.32879796624183655
1770950698547224300,12.478224365234375,1.6013820171356201,-1.1081087589263916,1.2634210586547852
1770950698566191900,12.49719189453125,0.9343177080154419,0.40805765986442566,1.3513855934143066
1770950698585159200,12.5161591796875,-1.1145228147506714,2.251647472381592,-0.17944152653217316
1770950698604126700,12.535126708984375,-0.8408553600311279,1.3597849607467651,-0.6681333780288696
1770950698623094300,12.55409423828125,0.17195843160152435,1.7446298599243164,-0.734106719493866
1770950698642061800,12.573061767578125,-0.12125665694475174,0.9932661056518555,-2.7230825424194336
1770950698661029000,12.592029052734375,-0.664926290512085,2.794095516204834,-4.194045066833496
1770950698679996700,12.61099658203125,-1.0387755632400513,4.382343769073486,-4.279565811157227
1770950698698964200,12.629964111328125,-1.795026183128357,4.467864990234375,-3.7933175563812256
1770950698717931800,12.648931884765625,-1.9281946420669556,2.4153592586517334,-2.118326425552368
1770950698736899000,12.667899169921874,-1.941633701324463,-0.3897317349910736,-0.13790272176265717
1770950698755866600,12.68686669921875,-2.431547164916992,-2.6035056114196777,-2.57891845703125
1770950698774834200,12.705834228515625,-0.5036579966545105,0.6707295179367065,-3.1445791721343994
1770950698793801700,12.7248017578125,0.5592467188835144,2.1954479217529297,-1.4085015058517456
1770950698812769300,12.743769287109375,0.4101957082748413,1.655443549156189,-1.0651954412460327
1770950698831736600,12.762736572265625,0.2525925934314728,1.3781108856201172,-1.1213949918746948
1770950698850704100,12.7817041015625,0.23426663875579834,1.72141695022583,-1.3217586278915405
1770950698869671700,12.800671630859375,0.1389717310667038,2.2724170684814453,-1.9619449377059937
1770950698888639200,12.81963916015625,-0.04917461425065994,1.848476767539978,-2.7475171089172363
1770950698907606500,12.8386064453125,-0.2214384824037552,1.5442661046981812,-3.0773839950561523
1770950698926574000,12.857573974609375,-0.3802633285522461,1.7324124574661255,-2.4237587451934814
1770950698945541600,12.876541748046876,-0.6661480665206909,1.5540399551391602,-1.1030690670013428
1770950698964509200,12.89550927734375,-0.9007201194763184,0.7929024696350098,-0.393244206905365
1770950698983476700,12.914476806640625,-0.8274163603782654,0.833219587802887,-0.29184064269065857
1770950699002444000,12.933444091796876,-0.4841103255748749,1.2718204259872437,-0.08659008145332336
1770950699021411600,12.95241162109375,-0.0772743970155716,0.9957095980644226,-0.26129740476608276
1770950699040379100,12.971379150390625,0.36254823207855225,0.37629270553588867,-0.43233954906463623
1770950699059346700,12.9903466796875,0.8439096808433533,0.2626718580722809,-0.6204859018325806
1770950699078314200,13.009314208984375,1.0943642854690552,0.4874700903892517,-0.2380845546722412
1770950699097281500,13.028281494140625,1.3240493535995483,0.7330377101898193,0.8040507435798645
1770950699116249000,13.0472490234375,1.562286615371704,1.1972949504852295,1.8877248764038086
1770950699135216600,13.066216552734375,1.488982915878296,0.5778780579566956,2.7869179248809814
1770950699154184000,13.085183837890625,1.436448574066162,-0.13194678723812103,3.523620843887329
1770950699173151500,13.1041513671875,0.7779362797737122,0.30054548382759094,3.9377870559692383
1770950699192119000,13.123119140625,0.41874781250953674,1.2608249187469482,3.6005897521972656
1770950699211086600,13.142086669921875,0.6044507026672363,1.6334524154663086,2.461937665939331
1770950699230054100,13.16105419921875,0.29901832342147827,2.3005168437957764,0.7735075354576111
1770950699249021400,13.180021484375,0.6264418363571167,2.4605634212493896,0.5645917654037476
1770950699267989000,13.198989013671875,0.804814338684082,2.900385856628418,1.6580396890640259
1770950699296440300,13.2274404296875,0.6789761781692505,0.19425499439239502,2.640310287475586
1770950699315408000,13.246407958984374,0.8097012639045715,-0.08429934084415436,2.7123923301696777
1770950699334375400,13.26537548828125,0.8524618148803711,-0.8649845123291016,2.6635231971740723
1770950699353342700,13.2843427734375,0.8451313972473145,-1.3854413032531738,2.6806273460388184
1770950699372310300,13.303310302734374,0.7070759534835815,-1.3194679021835327,2.483928918838501
1770950699391277800,13.32227783203125,0.4566214084625244,-0.8820887207984924,1.8510730266571045
1770950699410245400,13.341245361328125,0.2257145345211029,-1.1508692502975464,1.3037381172180176
1770950699429212700,13.360212646484374,-0.08460476994514465,-1.0702351331710815,0.6097957491874695
1770950699448180200,13.37918017578125,-0.34727662801742554,-1.2168426513671875,-0.15500694513320923
1770950699467147800,13.398147705078125,-0.3081812858581543,-1.4966187477111816,-0.947909414768219
1770950699486115300,13.417115234375,-0.1798996776342392,-1.6334524154663086,-1.6992731094360352
1770950699505083000,13.436082763671875,-0.3436114490032196,-0.9932661056518555,-2.1134393215179443
1770950699524050200,13.45505029296875,-0.9019418358802795,0.7012727856636047,-1.8556544780731201
1770950699543017700,13.474017822265624,-0.4938841760158539,1.0360267162322998,-1.3180934190750122
1770950699561985300,13.4929853515625,-0.03451386094093323,-1.4734058380126953,-0.734106719493866
1770950699580952800,13.511952880859376,0.6911935210227966,-2.160017967224121,0.39599308371543884
1770950699599920400,13.53092041015625,0.3039052188396454,-0.3848448097705841,0.8944587707519531
1770950699618887700,13.5498876953125,-0.3289506733417511,1.1911863088607788,-0.44211336970329285
1770950699637855200,13.568855224609376,-0.8958331942558289,2.5436408519744873,-1.3767365217208862
1770950699656822800,13.58782275390625,-0.8860593438148499,3.475820541381836,-0.5752819180488586
1770950699675790300,13.606790283203125,-0.5219839811325073,1.3109158277511597,-2.0547964572906494
1770950699694757600,13.625757568359376,-0.42302384972572327,0.720820426940918,-2.9881978034973145
1770950699713725200,13.64472509765625,-0.23854269087314606,0.667064368724823,-2.9637632369995117
1770950699732692700,13.663692626953125,-0.3130682110786438,0.6194168925285339,-2.886794328689575
1770950699751660300,13.682660400390626,-1.1389573812484741,2.045175313949585,-3.1983351707458496
1770950699770627800,13.7016279296875,-1.6581923961639404,3.7421576976776123,-2.4188718795776367
1770950699789595100,13.72059521484375,-1.3942989110946655,3.076314926147461,-0.6534726023674011
1770950699808562700,13.739562744140626,-1.5323543548583984,-2.3738205432891846,-2.1158828735351562
1770950699827530200,13.7585302734375,-0.45967575907707214,-1.469740629196167,-1.4805835485458374
1770950699846497800,13.777497802734375,-0.1127045527100563,-0.328645259141922,-0.20387612283229828
1770950699865465300,13.79646533203125,0.2306014597415924,0.2309068888425827,0.03191768378019333
1770950699884433000,13.815432861328125,0.11698060482740402,0.42882707715034485,-0.2906189262866974
1770950699903400200,13.834400146484375,0.31490078568458557,1.6493349075317383,-1.0285435914993286
1770950699922367700,13.85336767578125,0.4883863925933838,2.487441301345825,-1.8434371948242188
1770950699941335300,13.872335205078125,0.31612253189086914,1.9046764373779297,-2.3431246280670166
1770950699960302800,13.891302734375,-0.061391908675432205,0.9822705388069153,-2.7010912895202637
1770950699979270400,13.9102705078125,-0.44990190863609314,0.14049890637397766,-2.752403974533081
1770950699998237700,13.92923779296875,-0.6258309483528137,-0.25411975383758545,-2.1452043056488037
1770950700017205200,13.948205322265625,-0.9532544612884521,-0.18203771114349365,-0.9540180563926697
1770950700036172800,13.9671728515625,-1.1291835308074951,-0.002443459117785096,-0.4127918779850006
1770950700055140400,13.986140380859375,-0.9337068200111389,-0.10629047453403473,-0.6681333780288696
1770950700074108000,14.00510791015625,-0.6563742160797119,0.5351175665855408,-0.7389936447143555
1770950700093075500,14.024075439453124,-0.4621191918849945,1.110552191734314,-0.08903354406356812
1770950700112042800,14.043042724609375,-0.2788597643375397,0.5864301919937134,0.17852523922920227
1770950700131010300,14.06201025390625,0.08643736690282822,0.001221729558892548,-0.3565923273563385
1770950700149977900,14.080977783203124,0.46028661727905273,-0.3396408259868622,-0.670576810836792
1770950700168945400,14.0999453125,0.43463030457496643,-0.17226386070251465,0.011148282326757908
1770950700187913000,14.118912841796876,0.5335903763771057,0.14049890637397766,0.9579886794090271
1770950700206880300,14.13788037109375,0.8158099055290222,0.043982263654470444,1.6299399137496948
1770950700225847800,14.156847900390625,0.9929606914520264,-0.695164144039154,2.6781837940216064
1770950700244815400,14.1758154296875,1.4376702308654785,-0.3689623177051544,3.450316905975342
1770950700263783000,14.194782958984375,1.5024219751358032,0.13683371245861053,3.671450138092041
1770950700282750500,14.21375048828125,1.038164734840393,0.370184063911438,3.5028512477874756
1770950700301718000,14.232718017578126,0.7803797721862793,0.45326167345046997,2.7783658504486084
1770950700320685600,14.251685546875,0.9086613655090332,1.147204041481018,1.6433789730072021
1770950700339652900,14.27065283203125,0.8817833065986633,2.017075538635254,0.7515164017677307
1770950700358620400,14.289620361328126,0.8060360550880432,2.5387539863586426,0.9078977704048157
1770950700377588000,14.308587890625,0.7620537877082825,1.3060288429260254,1.7924299240112305
1770950700396555500,14.327555419921875,0.9844086170196533,-0.25534147024154663,2.5327980518341064
1770950700415523000,14.346523193359374,1.349705696105957,-0.5033525824546814,3.031263828277588
1770950700434490600,14.36549072265625,1.2873975038528442,-0.851545512676239,2.8687736988067627
1770950700453458000,14.3844580078125,1.1346813440322876,-1.2241730690002441,2.3043346405029297
1770950700472425500,14.403425537109374,1.079703450202942,-1.5332705974578857,1.9989023208618164
1770950700491393000,14.42239306640625,0.8915571570396423,-1.7165300846099854,1.8852814435958862
1770950700510360600,14.441360595703125,0.5482511520385742,-1.536935806274414,1.5700751543045044
1770950700529328000,14.460328125,0.16584978997707367,-1.2119556665420532,1.0374010801315308
1770950700548295700,14.479295654296875,-0.16768237948417664,-0.9407317638397217,0.2897026240825653
1770950700567263000,14.498262939453125,-0.2458730787038803,-0.6426297426223755,-0.48731738328933716
1770950700586230500,14.51723046875,-0.18600831925868988,-0.2761108875274658,-1.04076087474823
1770950700605198000,14.536197998046875,-0.189673513174057,-0.3445277214050293,-1.3779581785202026
1770950700624165600,14.55516552734375,-0.3546070158481598,-0.9651663303375244,-1.538004755973816
1770950700643133200,14.57413330078125,-0.41325002908706665,-1.176525592803955,-1.1213949918746948
1770950700662100700,14.593100830078125,0.004581485874950886,-0.6963858604431152,-0.6217076182365417
1770950700681068300,14.612068359375,0.374765545129776,-0.750141978263855,-0.2906189262866974
1770950700700035600,14.63103564453125,0.5897899270057678,-0.861319363117218,0.4387536346912384
1770950700719003100,14.650003173828125,0.34788748621940613,0.001221729558892548,0.5254964232444763
1770950700737970700,14.668970703125,-0.13225223124027252,0.9053016304969788,0.34468045830726624
1770950700756938200,14.687938232421875,-0.22876885533332825,1.5674790143966675,0.9445496797561646
1770950700775905800,14.70690576171875,-0.19089524447917938,1.2253947257995605,1.2866339683532715
1770950700794873300,14.725873291015626,-0.11636973917484283,0.3396408259868622,-0.36880961060523987
1770950700813841000,14.7448408203125,-0.5500837564468384,0.21991132199764252,-2.3089160919189453
1770950700832808200,14.76380810546875,-0.4841103255748749,0.38240134716033936,-3.1225879192352295
1770950700851775700,14.782775634765626,-0.34238970279693604,0.43371400237083435,-3.1702353954315186
1770950700870743300,14.801743408203125,-0.07483093440532684,4.147771835327148,-1.6540690660476685
1770950700889710800,14.8207109375,-1.0803143978118896,2.5888450145721436,-0.6302597522735596
1770950700908678400,14.839678466796874,-1.092531681060791,-1.6713260412216187,-0.967457115650177
1770950700927646000,14.85864599609375,-0.5195404887199402,-1.9486587047576904,-0.2331976294517517
1770950700946613500,14.877613525390625,-0.5525271892547607,-2.302960157394409,-0.15745039284229279
1770950700965581000,14.8965810546875,-0.5048797130584717,-1.8521419763565063,-0.5264127254486084
1770950700984548400,14.91554833984375,-0.41325002908706665,-0.9859357476234436,-0.8782708644866943
1770950701003516000,14.934515869140625,-0.3094030022621155,-0.35674503445625305,-0.9918916821479797
1770950701022483500,14.9534833984375,-0.09926552325487137,0.1588248461484909,-1.1348340511322021
1770950701041451000,14.972450927734375,0.016798781231045723,0.2565632164478302,-1.1348340511322021
1770950701060418600,14.99141845703125,-0.04550942778587341,-0.13439024984836578,-0.9100357890129089
1770950701079386000,15.01038623046875,-0.06872228533029556,-0.5766563415527344,-0.45066550374031067
1770950701098353700,15.029353759765625,-0.057726722210645676,-0.4068359434604645,-0.1049160286784172
1770950701117321000,15.048321044921876,-0.010079269297420979,-0.028099779039621353,0.06979130208492279
1770950701136288500,15.06728857421875,0.04734202101826668,-0.04764745384454727,0.21151192486286163
1770950701155256000,15.086256103515625,0.03023780696094036,-0.1844811588525772,0.47174033522605896
1770950701174223600,15.1052236328125,-0.010079269297420979,-0.06230820715427399,0.7063124179840088
1770950701193191200,15.124191162109375,-0.03817904740571976,-0.26511532068252563,0.662330150604248
1770950701212158700,15.14315869140625,-0.06627883017063141,-0.013439024798572063,0.4705185890197754
1770950701231126300,15.162126220703126,-0.04917461425065994,0.4935787320137024,0.305585116147995
1770950701250093800,15.18109375,-0.09071341902017593,0.45326167345046997,0.4436405599117279
1770950701269061400,15.200061279296875,-0.324063777923584,0.0720820426940918,0.6549997329711914
1770950701288028700,15.219028564453126,-0.44868019223213196,-0.09162971377372742,0.5401571989059448
1770950701306996200,15.237996337890625,-0.3643808364868164,0.1747073233127594,0.3507890999317169
1770950701325963800,15.2569638671875,-0.25809037685394287,0.40317076444625854,0.191964253783226
1770950701344931300,15.275931396484374,-0.17623448371887207,0.2663370370864868,-0.02672533318400383
1770950701363899000,15.29489892578125,-0.005192350596189499,0.21991132199764252,0.12476912885904312
1770950701382866400,15.313866455078125,0.1487455666065216,0.3543015718460083,0.7111993432044983
1770950701401833700,15.332833740234374,0.18661919236183167,0.31031930446624756,1.6177226305007935
1770950701420801300,15.35180126953125,0.2880227565765381,-0.026878049597144127,2.7392704486846924
1770950701439768800,15.370768798828125,0.34055712819099426,0.2626718580722809,2.8932082653045654
1770950701458736400,15.389736328125,0.47006043791770935,0.5705476999282837,2.9555165767669678
1770950701477704000,15.408703857421875,0.8084795475006104,0.8075632452964783,2.872438907623291
1770950701496671500,15.42767138671875,1.5329651832580566,0.7990111112594604,2.470489978790283
1770950701515639000,15.44663916015625,2.3478586673736572,0.44837474822998047,2.277456521987915
1770950701534606600,15.465606689453125,1.8616104125976562,0.6035344004631042,1.8608468770980835
1770950701553574100,15.48457421875,0.897665798664093,0.9236275553703308,1.2524255514144897
1770950701572541700,15.503541748046874,0.45051276683807373,1.1545344591140747,0.7478511929512024
1770950701591509000,15.522509033203125,0.22327107191085815,0.9126319885253906,0.23594652116298676
1770950701610476500,15.5414765625,0.23548837006092072,0.5949822664260864,-0.03894263133406639
1770950701629444000,15.560444091796874,0.25503605604171753,0.3799578845500946,-0.2698495090007782
1770950701648411600,15.57941162109375,0.05222893878817558,0.017104214057326317,-0.5581777095794678
1770950701667379200,15.598379150390626,-0.23365578055381775,-0.29077163338661194,-0.8440623879432678
1770950701686346800,15.6173466796875,-0.6001746654510498,-0.5253437161445618,-1.0432043075561523
1770950701705314300,15.636314208984375,-0.9556979537010193,-0.4276053309440613,-1.3242021799087524
1770950701724281900,15.65528173828125,-1.2354739904403687,-0.08796452730894089,-1.6357431411743164
1770950701743249400,15.67424951171875,-1.4871503114700317,0.10384701192378998,-1.9485058784484863
1770950701762217000,15.693217041015625,-1.7412700653076172,-0.2675587832927704,-2.257603406906128
1770950701781184300,15.712184326171876,-1.9062035083770752,-1.081230640411377,-2.470184564590454
1770950701800151800,15.73115185546875,-1.7033964395523071,-1.9755367040634155,-2.5251622200012207
1770950701819119400,15.750119384765625,-0.7162389755249023,-3.3573129177093506,-1.5160136222839355
1770950701838087000,15.7690869140625,-0.30573782324790955,-3.772700786590576,-1.3559670448303223
1770950701857054500,15.788054443359375,-0.1640172004699707,-1.9792019128799438,-2.014479398727417
1770950701876022000,15.80702197265625,0.4321868419647217,0.4764745235443115,-1.9130758047103882
1770950701894989600,15.825989501953124,0.6985238790512085,1.37078058719635,-1.39139723777771
1770950701913957000,15.84495703125,0.5238165259361267,0.5351175665855408,-0.6314814686775208
1770950701932924700,15.863924560546875,0.364991694688797,1.5796962976455688,0.378888875246048
1770950701951892200,15.882892333984374,0.2977965772151947,2.5583016872406006,0.7014254927635193
1770950701970859500,15.901859619140625,0.30634868144989014,-0.4373791813850403,-0.9967786073684692
1770950701989827000,15.9208271484375,-0.3289506733417511,-0.6866120100021362,-0.3468184769153595
1770950702008794600,15.939794677734374,-0.5525271892547607,0.6633991599082947,-0.35414886474609375
1770950702027762200,15.95876220703125,0.7156280875205994,3.286452531814575,-0.3822486400604248
1770950702046729700,15.977729736328126,0.364991694688797,-0.6255255341529846,0.4094321131706238
1770950702065697300,15.996697265625,0.14752385020256042,-1.1166608333587646,0.725860059261322
1770950702084664800,16.015664794921875,-0.07483093440532684,-2.042731761932373,-0.1611155867576599
1770950702103632400,16.03463232421875,-0.12492185086011887,-2.7782130241394043,-1.1690424680709839
1770950702122600000,16.053599853515625,0.013133592903614044,-0.4825831651687622,-0.5361865758895874
1770950702141567500,16.0725673828125,-0.06750056147575378,-0.23823726177215576,-0.16355904936790466
1770950702160535000,16.09153515625,-0.16035200655460358,-0.5229002237319946,-0.3150535225868225
1770950702179502600,16.110502685546876,-0.22999058663845062,-0.3127627670764923,-0.5019781589508057
1770950702198470000,16.129469970703123,-0.23365578055381775,0.006108647678047419,-0.5264127254486084
1770950702217437400,16.1484375,-0.20799945294857025,0.7220421433448792,-0.2857320010662079
1770950702236405000,16.167405029296877,-0.20677772164344788,0.9810488224029541,0.023365577682852745
1770950702255372500,16.18637255859375,-0.282524973154068,0.5143481492996216,0.22128576040267944
1770950702274340000,16.205340087890626,-0.21166464686393738,0.03543015569448471,0.2176205813884735
1770950702293307600,16.2243076171875,-0.2006690800189972,0.2565632164478302,0.40088000893592834
1770950702312275200,16.243275146484375,-0.05528326332569122,0.287106454372406,0.6745474338531494
1770950702331242800,16.26224267578125,0.02412915788590908,0.6340776681900024,0.5523744821548462
1770950702350210300,16.281210205078125,-0.1383608728647232,1.0861176252365112,0.7295252680778503
1770950702369177900,16.300177734375,-0.10903936624526978,1.4477494955062866,1.6018401384353638
1770950702388145400,16.3191455078125,0.4053087830543518,1.7006475925445557,2.5938844680786133
1770950702407113000,16.338113037109373,0.8720094561576843,1.3585633039474487,2.6745188236236572
1770950702426080300,16.357080322265624,1.0027345418930054,1.0800089836120605,2.7979133129119873
1770950702445047800,16.3760478515625,1.1615593433380127,0.1441640853881836,3.5504987239837646
1770950702464015400,16.395015380859373,1.303279995918274,-0.6633991599082947,3.931678533554077
1770950702482983000,16.41398291015625,1.4059052467346191,-0.06475166976451874,3.2560620307922363
1770950702501950500,16.432950439453126,1.5231913328170776,0.5778780579566956,2.0025675296783447
1770950702520918000,16.45191796875,1.3008365631103516,0.9541707634925842,0.7857248187065125
1770950702539885600,16.470885498046876,0.9086613655090332,0.813671886920929,0.09056070446968079
1770950702558853000,16.48985302734375,0.499381959438324,0.7134900689125061,-0.42745262384414673
1770950702577820700,16.508820556640625,0.27947062253952026,0.5913171172142029,-1.050534725189209
1770950702596788200,16.527788330078124,0.18784092366695404,0.4312705397605896,-1.6601777076721191
1770950702615755800,16.546755859375,-0.029626941308379173,0.17592905461788177,-2.0780093669891357
1770950702634723300,16.565723388671874,-0.4218021333217621,-0.13683371245861053,-2.249051332473755
1770950702653690600,16.584690673828124,-1.0045671463012695,-0.4263836145401001,-2.2649338245391846
1770950702672658200,16.603658203125,-1.7156137228012085,-1.0140355825424194,-2.2172863483428955
1770950702691625700,16.622625732421874,-2.282496213912964,-1.663995623588562,-2.2930335998535156
1770950702710593300,16.64159326171875,-2.492633819580078,-1.9657628536224365,-2.2783730030059814
1770950702729560800,16.660560791015627,-1.755930781364441,-2.581514596939087,-1.4891356229782104
1770950702748528400,16.6795283203125,-0.43890634179115295,-3.894873857498169,-0.06215549260377884
1770950702767496000,16.698495849609376,-0.4218021333217621,-2.4825544357299805,-1.2227985858917236
1770950702786463500,16.71746337890625,0.09132428467273712,0.15638138353824615,-1.5917608737945557
1770950702805431000,16.73643115234375,0.6753110289573669,0.9370665550231934,-1.087186574935913
1770950702824398600,16.755398681640624,0.7987056970596313,0.7648026943206787,-0.004734201822429895
1770950702843366100,16.7743662109375,0.5897899270057678,1.1398736238479614,0.7612902522087097
1770950702862333700,16.793333740234374,0.25503605604171753,0.26022839546203613,0.3764454126358032
1770950702881301200,16.81230126953125,0.26480987668037415,-1.6676608324050903,-0.8807142972946167
1770950702900268500,16.8312685546875,-0.17134757339954376,-0.9578359723091125,-1.6638429164886475
1770950702919236000,16.850236083984374,0.572685718536377,4.142884731292725,0.019700389355421066
1770950702938203600,16.86920361328125,0.2415970265865326,0.5424479246139526,-0.0694858655333519
1770950702957171200,16.888171142578123,0.1744018942117691,-0.1649334877729416,0.4448622763156891
1770950702976138800,16.907138671875,-0.2153298407793045,0.15515965223312378,0.633008599281311
1770950702995106300,16.926106201171876,-0.5940660238265991,-1.1398736238479614,-0.16355904936790466
1770950703014073900,16.945073974609375,-0.42791077494621277,-2.4630067348480225,-1.1702642440795898
1770950703033041400,16.96404150390625,-0.21410810947418213,-1.3732240200042725,-1.2692242860794067
1770950703052009000,16.983009033203125,0.04978547990322113,0.4630354940891266,-1.0859649181365967
1770950703070976500,17.0019765625,0.27947062253952026,1.3964369297027588,-1.088408350944519
1770950703089944000,17.020944091796874,0.19883649051189423,0.9651663303375244,-1.0847431421279907
1770950703108911400,17.039911376953125,-0.12247838824987411,0.5717694163322449,-0.40546149015426636
1770950703127879000,17.05887890625,-0.40836310386657715,0.49968740344047546,0.4839576184749603
1770950703146846500,17.077846435546874,-0.508544921875,0.06963858753442764,0.7087558507919312
1770950703165814000,17.09681396484375,-0.4413498044013977,-0.20891575515270233,0.5560396909713745
1770950703184781600,17.115781494140624,-0.32162031531333923,-0.009773836471140385,0.24816381931304932
1770950703203749000,17.1347490234375,0.05711585655808449,1.2315033674240112,-0.1415679156780243
1770950703222716700,17.153716552734377,0.36621344089508057,2.184452533721924,-0.25152358412742615
1770950703241684200,17.172684326171876,0.24892739951610565,1.4025455713272095,0.28725916147232056
1770950703260651800,17.19165185546875,-0.08949168771505356,0.4520399272441864,1.5077669620513916
1770950703279619300,17.210619384765625,-0.10415244847536087,0.3042106628417969,2.799135208129883
1770950703298587000,17.2295869140625,0.323452889919281,0.15149445831775665,3.508960008621216
1770950703317554200,17.24855419921875,0.6398808360099792,0.9285144805908203,3.2316274642944336
1770950703336521700,17.267521728515625,0.8219185471534729,1.351232886314392,2.685514211654663
1770950703355489300,17.2864892578125,1.1823288202285767,0.4202749729156494,3.0447027683258057
1770950703374456800,17.305456787109375,1.6099340915679932,0.19669845700263977,3.109454393386841
1770950703393424400,17.32442431640625,1.7150028944015503,0.20402882993221283,2.490037441253662
1770950703412392000,17.343391845703124,1.4926481246948242,0.6316341757774353,1.7606650590896606
1770950703431359500,17.362359375,1.018617033958435,0.8772017955780029,0.458301305770874
1770950703450327000,17.3813271484375,0.5983420610427856,0.9053016304969788,-0.17455461621284485
1770950703469294600,17.400294677734376,0.3087921440601349,0.7721330523490906,-0.688902735710144
1770950703488262100,17.41926220703125,0.1279761642217636,0.516791582107544,-1.2570070028305054
1770950703507229400,17.4382294921875,0.03023780696094036,-0.008552107028663158,-1.634521484375
1770950703526197000,17.457197021484376,-0.21899501979351044,-0.3530798554420471,-1.732259750366211
1770950703545164500,17.47616455078125,-0.7834340929985046,-0.6768381595611572,-1.6662863492965698
1770950703564132000,17.495132080078125,-1.4382811784744263,-1.1349867582321167,-1.6442952156066895
1770950703583099600,17.514099609375,-2.1273365020751953,-1.5748094320297241,-1.6870558261871338
1770950703602067200,17.533067138671875,-2.484081506729126,-2.0134103298187256,-1.8055635690689087
1770950703621034800,17.55203466796875,-2.1774275302886963,-2.5998404026031494,-1.7860158681869507
1770950703640002300,17.571002197265624,-0.4633409380912781,-3.6395323276519775,-0.5960513353347778
1770950703658969900,17.589969970703127,-0.057726722210645676,-3.160614252090454,-0.7670934200286865
1770950703677937200,17.608937255859374,0.038789913058280945,-1.1643083095550537,-1.7542508840560913
1770950703696904700,17.62790478515625,0.4834994673728943,0.6560688018798828,-1.7640247344970703
1770950703715872300,17.646872314453127,0.6252201199531555,1.6102395057678223,-0.8281798958778381
1770950703734839800,17.66583984375,0.5800161361694336,1.053130865097046,0.24816381931304932
1770950703753807400,17.684807373046876,0.39675667881965637,0.06841685622930527,0.1101083755493164
1770950703772775000,17.70377490234375,0.22693626582622528,-1.7568471431732178,-1.1653772592544556
1770950703791742500,17.722742431640626,-0.018631376326084137,1.2913681268692017,-0.3260490894317627
1770950703810710000,17.7417099609375,0.21960589289665222,5.279093265533447,0.6733257174491882
1770950703829677300,17.76067724609375,0.5580250024795532,0.4618137776851654,-0.8904881477355957
1770950703848644900,17.779644775390626,0.45417797565460205,0.7024945020675659,0.2029598206281662
1770950703867612400,17.7986123046875,-0.19333870708942413,0.5986474752426147,0.6769908666610718
1770950703886580000,17.817580078125,-0.6490437984466553,-2.0964879989624023,-0.22464552521705627
1770950703905547500,17.836547607421874,-0.6123919486999512,-3.5026986598968506,-1.1861467361450195
1770950703924515000,17.85551513671875,-0.25320345163345337,-0.6927206516265869,-1.0896300077438354
1770950703943482600,17.874482666015624,0.13652828335762024,1.9523237943649292,-0.7133373618125916
1770950703962450000,17.893449951171874,0.22204934060573578,1.304807186126709,-1.0444260835647583
1770950703981417500,17.91241748046875,0.1695149689912796,0.37262752652168274,-1.1458295583724976
1770950704000385000,17.931385009765624,-0.019853105768561363,0.22479823231697083,-0.4653262495994568
1770950704019352600,17.9503525390625,-0.2971857190132141,0.1747073233127594,0.39110618829727173
1770950704038320000,17.969320068359377,-0.4108065664768219,-0.3738492429256439,0.7319687008857727
1770950704057287700,17.98828759765625,-0.5659661889076233,-0.7391464114189148,0.7087558507919312
1770950704076255000,18.0072548828125,-0.42791077494621277,-0.1539379209280014,0.24816381931304932
1770950704095222500,18.026222412109377,0.032681263983249664,1.314581036567688,-0.08903354406356812
1770950704114190000,18.045190185546875,0.11942406743764877,1.6725478172302246,0.1357647031545639
1770950704133157600,18.06415771484375,-0.09071341902017593,1.072678565979004,0.6354520916938782
1770950704152125200,18.083125244140625,-0.25442516803741455,0.4410443603992462,1.1400264501571655
1770950704171092700,18.1020927734375,-0.1798996776342392,0.4874700903892517,1.9598069190979004
1770950704190060300,18.121060302734374,0.12553271651268005,0.43860089778900146,2.902982234954834
1770950704209027600,18.140027587890625,0.48960810899734497,0.6914989352226257,3.0361506938934326
1770950704227995100,18.1589951171875,0.795040488243103,1.1850776672363281,2.757596254348755
1770950704246962700,18.177962646484374,1.0662645101547241,0.15515965223312378,2.8260130882263184
1770950704265930200,18.19693017578125,1.5219695568084717,0.39339691400527954,2.8870997428894043
1770950704284897800,18.215897705078124,1.534186840057373,0.2211330533027649,2.475376844406128
1770950704303865300,18.234865234375,1.498756766319275,0.06230820715427399,2.000123977661133
1770950704322832600,18.25383251953125,1.0198386907577515,0.27855435013771057,0.9054543375968933
1770950704341800200,18.27280029296875,0.6349939107894897,0.5632173418998718,0.09178243577480316
1770950704360767700,18.291767822265626,0.40897396206855774,0.5790998339653015,-0.514195442199707
1770950704379735300,18.3107353515625,0.31001389026641846,0.2932150959968567,-1.022434949874878
1770950704398702800,18.329702880859376,0.34177884459495544,0.05742128938436508,-1.4634792804718018
1770950704417670400,18.34867041015625,0.2367101013660431,-0.11239911615848541,-1.6956079006195068
1770950704436637700,18.3676376953125,-0.210442915558815,-0.41783151030540466,-1.6589560508728027
1770950704455605200,18.386605224609376,-0.805425226688385,-0.7611374855041504,-1.5929826498031616
1770950704474572800,18.40557275390625,-1.3173298835754395,-0.8723149299621582,-1.6198606491088867
1770950704493540400,18.424540283203125,-1.6972877979278564,-1.1081087589263916,-1.6113085746765137
1770950704512508000,18.4435078125,-1.979507327079773,-1.0494656562805176,-1.6174172163009644
1770950704531475200,18.46247509765625,-1.795026183128357,-1.3842196464538574,-1.3351976871490479
1770950704550442800,18.48144287109375,-0.693026065826416,-2.6169447898864746,-0.2991710305213928
1770950704569410300,18.500410400390624,-0.3790415823459625,-3.247357130050659,-0.5312996506690979
1770950704588377900,18.5193779296875,-0.11759147047996521,-1.7153083086013794,-1.613752007484436
1770950704607345400,18.538345458984374,0.21960589289665222,0.5839866995811462,-1.9509494304656982
1770950704626313000,18.55731298828125,0.5910117030143738,1.4465278387069702,-1.4842487573623657
1770950704645280300,18.5762802734375,0.8353576064109802,1.684765100479126,-0.5349648594856262
1770950704664247800,18.595247802734374,0.6704241037368774,1.977980136871338,0.2188423126935959
1770950704683215400,18.61421533203125,0.11087195575237274,0.8344413042068481,-0.15745039284229279
1770950704702183000,18.633182861328127,-0.06750056147575378,-1.2302817106246948,-0.7231112122535706
1770950704721150500,18.652150390625,-0.30085089802742004,-0.6597339510917664,0.5071704983711243
1770950704740117800,18.67111767578125,-0.27519458532333374,1.4098758697509766,-1.04076087474823
1770950704759085300,18.690085205078127,1.155450701713562,4.266279697418213,-0.7365502119064331
1770950704778052900,18.709052978515626,0.19761475920677185,-1.1618647575378418,1.187673807144165
1770950704797020400,18.7280205078125,-0.04550942778587341,-1.51616632938385,1.4479022026062012
1770950704815988000,18.746988037109375,-0.0565049909055233,-1.7067562341690063,-0.20631958544254303
1770950704834955300,18.765955322265626,-0.2409861534833908,-1.64566969871521,-1.7799072265625
1770950704853922800,18.7849228515625,-0.18234314024448395,-0.29077163338661194,-1.2692242860794067
1770950704872890400,18.803890380859375,-0.15179990231990814,0.34086254239082336,-0.8868229389190674
1770950704891858000,18.82285791015625,-0.10048725455999374,0.10384701192378998,-0.8379537463188171
1770950704910825200,18.8418251953125,-0.11392628401517868,0.3029889166355133,-0.6681333780288696
1770950704929792800,18.860792724609375,-0.23243404924869537,0.20769402384757996,-0.4127918779850006
1770950704948760300,18.87976025390625,-0.4364628791809082,-0.1905898153781891,-0.11468986421823502
1770950704967727900,18.898727783203125,-0.6233875155448914,-0.46914416551589966,0.2444986253976822
1770950704986695400,18.9176953125,-0.629496157169342,-0.36774060130119324,0.5120574235916138
1770950705005662700,18.936662841796874,-0.5219839811325073,0.06963858753442764,0.6440041661262512
1770950705024630300,18.95563037109375,-0.2263254076242447,1.0421353578567505,0.3556760251522064
1770950705043597800,18.974597900390624,0.1340848207473755,2.017075538635254,0.08323032408952713
1770950705062565400,18.9935654296875,0.23304490745067596,2.329838275909424,-0.013286309316754341
1770950705081532700,19.01253271484375,0.24404047429561615,1.9559890031814575,0.09666935354471207
1770950705100500200,19.031500244140624,0.05222893878817558,1.2681553363800049,0.6415607333183289
1770950705119467800,19.0504677734375,-0.15057817101478577,0.4056142270565033,1.2683080434799194
1770950705138435300,19.069435302734377,-0.1127045527100563,-0.12217295914888382,1.4601194858551025
1770950705157402600,19.088402587890624,0.3943132162094116,0.23212862014770508,1.6775873899459839
1770950705176370200,19.1073701171875,0.9379828572273254,1.119104266166687,1.5456405878067017
1770950705195337700,19.126337646484377,1.2092068195343018,1.3952151536941528,1.4943280220031738
1770950705214305300,19.14530517578125,1.1542290449142456,0.5314523577690125,2.2371394634246826
1770950705233272600,19.1642724609375,1.176220178604126,-0.9651663303375244,3.1705408096313477
1770950705252240100,19.183240234375,1.4278963804244995,-0.32009315490722656,2.8370087146759033
1770950705271207700,19.202207763671876,1.5659518241882324,0.2577849328517914,2.084423303604126
1770950705290175000,19.221175048828126,1.0601558685302734,0.3543015718460083,1.2206605672836304
1770950705309142500,19.240142578125,0.5250383019447327,0.6768381595611572,0.4631882309913635
1770950705328110000,19.259110107421876,0.16707152128219604,1.043357014656067,0.029474224895238876
1770950705347077600,19.27807763671875,-0.03451386094093323,0.7819069027900696,-0.2185368686914444
1770950705366045000,19.297044921875,-0.1127045527100563,0.35185810923576355,-0.43600472807884216
1770950705385012500,19.316012451171876,-0.2153298407793045,0.24556763470172882,-0.5887209177017212
1770950705403980000,19.33497998046875,-0.42913252115249634,-0.10140355676412582,-0.6424770355224609
1770950705422947600,19.353947509765625,-0.6991347670555115,-0.5045742988586426,-0.5936078429222107
1770950705441915000,19.372914794921876,-1.0106757879257202,-0.7660244107246399,-0.6168206930160522
1770950705460882400,19.39188232421875,-1.1499528884887695,-0.7440332770347595,-0.6595812439918518
1770950705479850000,19.41085009765625,-1.191491723060608,-0.6047561168670654,-0.6937896609306335
1770950705498817300,19.4298173828125,-1.2061525583267212,-0.536339282989502,-0.7866411209106445
1770950705517784800,19.448784912109375,-1.1731657981872559,-0.8491020202636719,-1.1201733350753784
1770950705536752400,19.46775244140625,-1.043662428855896,-1.1679733991622925,-1.5599958896636963
1770950705555720000,19.486719970703124,-0.6991347670555115,-1.626121997833252,-1.6125303506851196
1770950705574687200,19.505687255859375,0.06322450190782547,-2.3958115577697754,-1.1629338264465332
1770950705593654800,19.52465478515625,0.30634868144989014,-2.375042200088501,-1.1421644687652588
1770950705612622300,19.543622314453124,0.2306014597415924,-1.7678426504135132,-1.5160136222839355
1770950705631589600,19.562589599609375,0.3271180987358093,-0.7672461867332458,-1.6675081253051758
1770950705650557200,19.58155712890625,0.32589635252952576,0.21746785938739777,-1.1702642440795898
1770950705669524700,19.600524658203124,0.31001389026641846,0.6695078015327454,-0.4298960864543915
1770950705688492300,19.6194921875,0.2782489061355591,0.5510000586509705,-0.1928805559873581
1770950705707459600,19.63845947265625,0.29901832342147827,0.9517273306846619,0.3019199073314667
1770950705726427100,19.65742724609375,0.32100942730903625,1.0751219987869263,0.5352702736854553
1770950705745394700,19.676394775390627,0.14996729791164398,-1.119104266166687,-0.69012451171875
1770950705764362000,19.695362060546874,-0.48655378818511963,-0.7098248600959778,-0.04016435891389847
1770950705783329500,19.71432958984375,0.1805105358362198,1.8435899019241333,-0.8965967893600464
1770950705802297000,19.733297119140627,1.2959495782852173,4.984656810760498,-1.39139723777771
1770950705821264400,19.752264404296874,0.2367101013660431,0.8955277800559998,0.11499529331922531
1770950705840232000,19.77123193359375,0.0412333719432354,-0.28588470816612244,0.19074252247810364
1770950705859199500,19.790199462890627,-0.20433427393436432,-0.8307760953903198,-0.3480401933193207
1770950705878166800,19.809166748046874,-0.4401280879974365,-1.0250310897827148,-0.6180424690246582
1770950705897134300,19.82813427734375,-0.476779967546463,-0.9028581380844116,-0.8379537463188171
1770950705916101600,19.8471015625,-0.3961458206176758,-0.5888736248016357,-0.9283617734909058
1770950705935069200,19.866069091796874,-0.28008151054382324,-0.25900667905807495,-0.8318451046943665
1770950705954036500,19.885036376953124,-0.24953825771808624,-0.13439024984836578,-0.7683151960372925
1770950705973004000,19.904004150390627,-0.19211697578430176,-0.09040798991918564,-0.6644681692123413
1770950705991971600,19.9229716796875,-0.17867794632911682,-0.020769402384757996,-0.4433351159095764
1770950706010939000,19.94193896484375,-0.22266021370887756,-0.046425722539424896,-0.26129740476608276
1770950706029906400,19.960906494140627,-0.30573782324790955,-0.15638138353824615,-0.04505127668380737
1770950706048874000,19.9798740234375,-0.29962918162345886,-0.08918625861406326,0.1101083755493164
1770950706067841300,19.99884130859375,-0.1737910360097885,0.08063415437936783,0.07589995115995407
1770950706086808800,20.017808837890627,-0.11514800786972046,0.5485565662384033,0.05146535858511925
1770950706105776400,20.0367763671875,0.029016077518463135,1.3280199766159058,0.21029019355773926
1770950706124743700,20.05574365234375,0.2525925934314728,2.0659446716308594,0.3678933084011078
1770950706143711200,20.074711181640627,0.21349723637104034,1.8643592596054077,0.5291616320610046
1770950706162678500,20.093678466796874,0.07422006875276566,0.8869756460189819,0.7319687008857727
1770950706181646000,20.11264599609375,-0.17256930470466614,-0.10873392969369888,0.8834632039070129
1770950706200613600,20.131613525390627,-0.2776380479335785,-0.84177166223526,0.7564033269882202
1770950706219581000,20.150580810546874,-0.15302163362503052,-1.1032217741012573,0.5047270059585571
1770950706238548500,20.169548583984376,-0.0870482325553894,-0.7391464114189148,0.45097091794013977
1770950706257516000,20.18851611328125,-0.028405211865901947,-0.20891575515270233,0.388662725687027
1770950706276483300,20.2074833984375,0.05833758786320686,0.1954767256975174,0.4656316637992859
1770950706295451000,20.226450927734376,0.21471896767616272,0.5436696410179138,1.1388046741485596
1770950706314418400,20.24541845703125,0.4834994673728943,0.6866120100021362,2.092975378036499
1770950706333385700,20.2643857421875,0.4199695289134979,0.4569268524646759,2.8101305961608887
1770950706352353300,20.283353271484376,0.4016436040401459,0.6267472505569458,2.9542946815490723
1770950706371320600,20.302320556640623,0.6166679859161377,-0.20769402384757996,3.1082327365875244
1770950706390288100,20.3212880859375,0.9330959320068359,0.21502439677715302,2.7429356575012207
1770950706409255700,20.340255615234376,1.1713331937789917,0.7269290685653687,2.050215005874634
1770950706428223000,20.359222900390623,1.4156790971755981,1.0836740732192993,1.0923789739608765
1770950706447190500,20.3781904296875,1.3619229793548584,0.7831286191940308,0.4082103967666626
1770950706466157800,20.39715771484375,1.038164734840393,0.3445277214050293,0.33001968264579773
1770950706485125400,20.41612548828125,0.8206968307495117,-0.08429934084415436,0.27626359462738037
1770950706504093000,20.435093017578126,0.7461713552474976,-0.5082395076751709,0.03436114266514778
1770950706523060200,20.454060302734376,0.6826413869857788,-0.7562506198883057,-0.19898919761180878
1770950706542027800,20.47302783203125,0.46883872151374817,-0.720820426940918,-0.38591381907463074
1770950706560995000,20.4919951171875,0.10598503798246384,-0.6939423680305481,-0.5105302333831787
1770950706579962600,20.510962646484376,-0.19211697578430176,-0.6084213256835938,-0.6314814686775208
1770950706598930200,20.52993017578125,-0.3802633285522461,-0.3958403766155243,-0.8159626126289368
1770950706617897500,20.5488974609375,-0.5806269645690918,-0.3176496922969818,-1.001665472984314
1770950706636865000,20.567864990234376,-0.7785471677780151,-0.22235478460788727,-1.1568251848220825
1770950706655832300,20.586832275390623,-0.9483675956726074,-0.12705987691879272,-1.3034327030181885
1770950706674799900,20.6057998046875,-1.074205756187439,-0.10140355676412582,-1.4549272060394287
1770950706693767400,20.624767333984376,-1.1475094556808472,-0.1905898153781891,-1.5172353982925415
1770950706712734700,20.643734619140623,-1.14017915725708,-0.5204567909240723,-1.5599958896636963
1770950706731702300,20.662702392578126,-0.9605848789215088,-1.1985167264938354,-1.4256056547164917
1770950706750669600,20.681669677734376,-0.7492256760597229,-2.031736373901367,-0.9308052062988281
1770950706769637000,20.70063720703125,-0.41813695430755615,-2.1673481464385986,-0.69012451171875
1770950706788604400,20.7196044921875,-0.09437860548496246,-1.6151264905929565,-0.846505880355835
1770950706807572000,20.738572021484377,0.17073670029640198,-0.9382883310317993,-1.0713040828704834
1770950706826539500,20.75753955078125,0.3173442482948303,-0.2260199636220932,-1.2142465114593506
1770950706845506800,20.7765068359375,0.22693626582622528,0.33719736337661743,-1.2423462867736816
1770950706864474400,20.795474365234377,0.3039052188396454,0.40805765986442566,-1.1128429174423218
1770950706883441700,20.814441650390624,0.40408703684806824,1.1777472496032715,-0.5716167092323303
1770950706902409200,20.8334091796875,0.3601047992706299,2.095266103744507,-0.0951421856880188
1770950706921376500,20.85237646484375,0.03756818547844887,0.7452550530433655,-0.40546149015426636
1770950706940344000,20.871343994140624,0.19394956529140472,-1.2266165018081665,-0.826958179473877
1770950706959311400,20.890311279296874,0.05589412897825241,0.7953459620475769,0.8541416525840759
1770950706978279000,20.90927880859375,0.25992295145988464,2.5973970890045166,0.1357647031545639
1770950706997246500,20.92824658203125,0.7400626540184021,1.7837251424789429,-0.3248273432254791
1770950707016213800,20.9472138671875,0.5641336441040039,-0.41294458508491516,0.3104720115661621
1770950707035181300,20.966181396484377,0.40408703684806824,-0.7024945020675659,0.1052214577794075
1770950707054148600,20.985148681640624,0.04001164436340332,-0.5852084755897522,-0.5997164845466614
1770950707073116200,21.0041162109375,-0.11881320178508759,-0.4276053309440613,-0.9747874736785889
1770950707092083500,21.02308349609375,-0.3191768527030945,-0.5009090900421143,-0.7793107628822327
1770950707111051000,21.042051025390624,-0.45967575907707214,-0.711046576499939,-0.5068650245666504
1770950707130018300,21.061018310546874,-0.49144071340560913,-0.7000510096549988,-0.43722647428512573
1770950707148985900,21.07998583984375,-0.4425715208053589,-0.5094612240791321,-0.43722647428512573
1770950707167953200,21.098953125,-0.38881543278694153,-0.29565855860710144,-0.4225656986236572
1770950707186920700,21.117920654296874,-0.33017241954803467,-0.16126830875873566,-0.40057456493377686
1770950707205888300,21.13688818359375,-0.2776380479335785,-0.03176496922969818,-0.3455967605113983
1770950707224855600,21.15585546875,-0.23854269087314606,0.020769402384757996,-0.28328853845596313
1770950707243823000,21.174822998046874,-0.16768237948417664,0.18325942754745483,-0.2759581506252289
1770950707262790400,21.193790283203125,-0.13713914155960083,0.27977606654167175,-0.24785839021205902
1770950707281758000,21.212758056640624,-0.16157373785972595,0.28466299176216125,0.04780016839504242
1770950707300725200,21.231725341796874,-0.1640172004699707,0.657290518283844,0.43753188848495483
1770950707319692800,21.25069287109375,-0.16768237948417664,0.9358448386192322,0.5426006317138672
1770950707338660000,21.26966015625,-0.21777328848838806,0.6621774435043335,0.5914698243141174
1770950707357627600,21.288627685546874,-0.18234314024448395,0.10629047453403473,0.6134609580039978
1770950707376595000,21.307594970703125,-0.0870482325553894,-0.36285367608070374,0.5426006317138672
1770950707395562500,21.3265625,-0.000305432389723137,-0.370184063911438,0.36544984579086304
1770950707414529800,21.34552978515625,0.17684535682201385,0.13194678723812103,0.16997312009334564
1770950707433497300,21.364497314453125,0.2831358313560486,0.4667007029056549,0.06368265300989151
1770950707452464600,21.383464599609376,0.2623664140701294,0.5106829404830933,-0.05238165333867073
1770950707471432200,21.40243212890625,0.13041962683200836,0.2516762912273407,0.06979130208492279
1770950707490399500,21.4213994140625,-0.16279546916484833,-0.38240134716033936,0.7869465351104736
1770950707509367000,21.440366943359376,-0.3094030022621155,-0.8429933786392212,1.6226096153259277
1770950707528334300,21.459334228515626,-0.19700388610363007,-0.7318159937858582,2.1247403621673584
1770950707547302000,21.478302001953125,0.15485422313213348,0.050090912729501724,2.246913433074951
1770950707566269200,21.497269287109376,0.48105600476264954,0.7257073521614075,2.2175917625427246
1770950707585236700,21.51623681640625,0.5201513767242432,0.9908226728439331,2.397186040878296
1770950707604204000,21.5352041015625,0.4529562294483185,0.5839866995811462,2.7343835830688477
1770950707623171600,21.554171630859376,0.37354379892349243,0.35063639283180237,2.5633413791656494
1770950707642139000,21.573138916015626,0.8133664727210999,0.720820426940918,1.8535164594650269
1770950707661106400,21.5921064453125,1.1969895362854004,0.8307760953903198,1.3684898614883423
1770950707680073700,21.61107373046875,1.0406081676483154,0.4214966893196106,1.1864521503448486
1770950707699041300,21.630041259765626,0.8805615901947021,0.3066541254520416,0.7014254927635193
1770950707718008600,21.649008544921877,0.8463531732559204,0.4679224193096161,0.3972148299217224
1770950707736976100,21.66797607421875,0.9318742156028748,0.4874700903892517,0.13454297184944153
1770950707755943400,21.686943359375,0.9782999157905579,-0.03298669680953026,-0.13423752784729004
1770950707774911000,21.705910888671873,0.7987056970596313,-0.6902772188186646,-0.14889828860759735
1770950707793878300,21.724878173828124,0.42852163314819336,-1.0567960739135742,-0.10980294644832611
1770950707812845800,21.743845703125,-0.016187917441129684,-1.351232886314392,-0.0951421856880188
1770950707831813000,21.762813232421873,-0.18845178186893463,-1.2583814859390259,-0.09880737960338593
1770950707850780400,21.781780517578124,-0.4218021333217621,-1.1655299663543701,-0.18066325783729553
1770950707869748000,21.800748046875,-0.5732966065406799,-0.7464767694473267,-0.5459604263305664
1770950707888715300,21.81971533203125,-0.6417134404182434,-0.14172062277793884,-0.8880446553230286
1770950707907682800,21.838682861328124,-0.7565560340881348,0.11362084746360779,-1.1849249601364136
1770950707926650000,21.857650146484374,-0.9104939699172974,0.10018182545900345,-1.4891356229782104
1770950707945617700,21.87661767578125,-1.063210129737854,-0.13927717506885529,-1.8031201362609863
1770950707964585000,21.8955849609375,-1.120631456375122,-0.7391464114189148,-1.7456988096237183
1770950707983552500,21.914552490234374,-0.7345649003982544,-1.5479313135147095,-1.0102176666259766
1770950708002519800,21.933519775390625,-0.3900371491909027,-1.489288330078125,-0.6327031850814819
1770950708021487000,21.952487060546876,-0.24831652641296387,-1.2095122337341309,-0.8733839392662048
1770950708040454700,21.97145458984375,-0.025961752980947495,-1.0739002227783203,-1.264337420463562
1770950708059422000,21.990421875,0.19272783398628235,-0.8478803038597107,-1.4903573989868164
1770950708078389500,22.009389404296876,0.3344484567642212,-0.24801109731197357,-1.6748385429382324
1770950708097356800,22.028356689453126,0.27947062253952026,0.8173370957374573,-1.7127121686935425
1770950708116324400,22.047324462890625,0.09865466505289078,0.9004147052764893,-1.206916093826294
1770950708135291600,22.066291748046876,0.022907428443431854,0.11239911615848541,-0.5080868005752563
1770950708154259200,22.08525927734375,0.08399390429258347,-0.4068359434604645,-0.21609342098236084
1770950708173226500,22.1042265625,0.11942406743764877,-0.22724169492721558,-0.009621120058000088
1770950708192193800,22.12319384765625,-0.13225223124027252,0.6291907429695129,-0.021838415414094925
1770950708211161300,22.142161376953126,-0.21899501979351044,0.1331685185432434,-0.4176788032054901
1770950708230128600,22.161128662109373,-0.26542073488235474,-0.08918625861406326,0.5597048401832581
1770950708249096200,22.18009619140625,0.0766635313630104,0.13439024984836578,0.32391104102134705
1770950708268063500,22.1990634765625,0.7437278628349304,1.4868448972702026,-1.975383996963501
1770950708287030800,22.21803076171875,1.0552688837051392,3.6419758796691895,-0.9112575054168701
1770950708305998300,22.236998291015624,0.5971203446388245,0.02932151034474373,0.4741837978363037
1770950708324965600,22.255965576171874,0.14019346237182617,-1.3011419773101807,0.7429642677307129
1770950708343933200,22.27493310546875,-0.06750056147575378,-1.247385859489441,0.21517711877822876
1770950708362900500,22.293900390625,-0.24220788478851318,-1.2779290676116943,-0.5203040838241577
1770950708381868000,22.312867919921874,-0.2971857190132141,-1.1166608333587646,-0.864831805229187
1770950708400835300,22.33183544921875,-0.2910770773887634,-0.7244856357574463,-0.8978185057640076
1770950708419802600,22.350802734375,-0.23365578055381775,-0.2932150959968567,-0.8587231636047363
1770950708438770200,22.369770263671874,-0.09071341902017593,0.08552107214927673,-0.9772309064865112
1770950708457737500,22.388737548828125,-0.09071341902017593,0.2883281707763672,-0.9943351149559021
1770950708476705000,22.407705078125,-0.2605338394641876,0.2516762912273407,-0.8501710295677185
1770950708495672300,22.42667236328125,-0.4877755343914032,0.17348559200763702,-0.5203040838241577
1770950708514639600,22.4456396484375,-0.5439751148223877,0.08552107214927673,-0.23075416684150696
1770950708533607200,22.464607177734376,-0.5061014890670776,0.053756099194288254,-0.0206166859716177
1770950708552574500,22.483574462890626,-0.3802633285522461,-0.018325943499803543,0.15897755324840546
1770950708571542000,22.5025419921875,-0.22999058663845062,0.06108647957444191,0.13942988216876984
1770950708590509300,22.52150927734375,-0.051618073135614395,0.49480047821998596,0.10277800261974335
1770950708609476600,22.5404765625,0.09498947113752365,1.0873392820358276,0.1821904182434082
1770950708628444200,22.559444091796873,0.20372340083122253,1.450192928314209,0.3153589367866516
1770950708647411500,22.578411376953124,0.20861032605171204,1.2534945011138916,0.49373146891593933
1770950708666379000,22.59737890625,0.18661919236183167,0.42882707715034485,0.7502946853637695
1770950708685346300,22.61634619140625,0.02779434807598591,-0.3078758418560028,0.9738711714744568
1770950708704313600,22.635313720703124,-0.08826996386051178,-0.6084213256835938,0.7979421019554138
1770950708723281200,22.65428125,-0.06627883017063141,-0.3836230933666229,0.25671592354774475
1770950708742248400,22.67324853515625,0.0204639695584774,0.11362084746360779,0.12965604662895203
1770950708761215700,22.6922158203125,-0.04428769648075104,0.13194678723812103,0.521831214427948
1770950708780183300,22.711183349609374,-0.032070402055978775,-0.11728604137897491,1.003192663192749
1770950708799150600,22.730150634765625,0.11087195575237274,-0.2211330533027649,1.901163935661316
1770950708818118100,22.7491181640625,0.40408703684806824,0.5314523577690125,2.5889976024627686
1770950708837085400,22.76808544921875,0.7877101302146912,1.4831796884536743,2.6525275707244873
1770950708856052700,22.787052734375,1.000291109085083,1.5638138055801392,2.6109888553619385
1770950708875020300,22.806020263671876,1.0870338678359985,1.1679733991622925,2.77470064163208
1770950708893987600,22.824987548828126,1.2800670862197876,1.452636480331421,2.2725696563720703
1770950708912955000,22.843954833984377,1.7272201776504517,0.5338957905769348,2.2090396881103516
1770950708931922400,22.86292236328125,1.7455461025238037,0.6927206516265869,1.986685037612915
1770950708950889700,22.8818896484375,1.3851358890533447,0.6499601006507874,1.1339176893234253
1770950708969857300,22.900857177734373,0.8903354406356812,0.32131487131118774,0.5450441241264343
1770950708988824600,22.919824462890624,0.5958985686302185,-0.05742128938436508,0.3837758004665375
1770950709007791900,22.9387919921875,0.6044507026672363,-0.21746785938739777,0.10399972647428513
1770950709026759400,22.957759521484373,0.6337721943855286,-0.6426297426223755,-0.07315105944871902
1770950709045726700,22.976726806640624,0.4712821841239929,-0.924849271774292,-0.21731515228748322
1770950709064694000,22.995694091796874,0.15729768574237823,-0.9541707634925842,-0.22708898782730103
1770950709083661300,23.014661376953125,-0.2666424810886383,-0.831997811794281,-0.3113883137702942
1770950709102628900,23.03362890625,-0.6075050234794617,-0.7892373204231262,-0.4225656986236572
1770950709121596200,23.05259619140625,-0.8115338683128357,-0.7660244107246399,-0.6180424690246582
1770950709140563700,23.071563720703125,-0.9361502528190613,-0.7464767694473267,-0.8831577301025391
1770950709159531000,23.090531005859376,-0.9337068200111389,-0.6194168925285339,-1.1213949918746948
1770950709178498300,23.109498291015626,-0.9239329695701599,-0.43493571877479553,-1.3254238367080688
1770950709197465900,23.1284658203125,-1.02655827999115,-0.39828383922576904,-1.5318961143493652
1770950709216433200,23.14743310546875,-1.1523964405059814,-0.7220421433448792,-1.6003129482269287
1770950709235400400,23.166400390625,-0.9129374027252197,-1.422093152999878,-1.3034327030181885
1770950709254368000,23.185367919921877,-0.4462367296218872,-1.935219645500183,-0.8965967893600464
1770950709273335300,23.204335205078124,-0.16523891687393188,-1.7067562341690063,-1.0994038581848145
1770950709292302600,23.223302490234374,0.04001164436340332,-1.4367539882659912,-1.5160136222839355
1770950709311270100,23.242270263671877,0.2098320573568344,-0.8552106618881226,-1.6540690660476685
1770950709330237400,23.261237548828124,0.2965748608112335,-0.15638138353824615,-1.3303108215332031
1770950709349204700,23.280204833984374,0.20250166952610016,-0.03543015569448471,-0.9369138479232788
1770950709368172300,23.29917236328125,0.0717766135931015,-0.26022839546203613,-0.6424770355224609
1770950709387139600,23.3181396484375,0.03634645417332649,-0.08796452730894089,-0.5031998753547668
1770950709406107000,23.33710693359375,0.10598503798246384,0.7696896195411682,-0.09147699922323227
1770950709425074200,23.35607421875,-0.11392628401517868,1.0971131324768066,-0.17577634751796722
1770950709444041700,23.375041748046876,-0.09560033679008484,-0.5302306413650513,-1.021213173866272
1770950709463009000,23.394009033203126,-0.27397283911705017,0.7012727856636047,0.42531460523605347
1770950709481976300,23.412976318359377,-0.07116574794054031,1.2315033674240112,0.716086208820343
1770950709500943600,23.431943603515624,0.15485422313213348,0.2675587832927704,-1.9008585214614868
1770950709519911200,23.4509111328125,0.4517345130443573,2.1306962966918945,-1.2606722116470337
1770950709538878500,23.46987841796875,0.4370737373828888,1.2119556665420532,0.4399753510951996
1770950709557846000,23.488845947265624,0.14630211889743805,-0.7660244107246399,0.15042544901371002
1770950709576813300,23.507813232421874,0.0461202897131443,-0.4471530318260193,-0.16355904936790466
1770950709595780600,23.526780517578125,-0.12980876863002777,-0.5937605500221252,-0.5019781589508057
1770950709614748000,23.545747802734375,-0.23732095956802368,-1.0225876569747925,-0.8477275967597961
1770950709633715500,23.564715576171874,-0.2813032269477844,-1.0091485977172852,-0.9637919068336487
1770950709652682800,23.583682861328125,-0.2519817352294922,-0.3897317349910736,-0.8452841639518738
1770950709671650000,23.602650146484375,-0.16768237948417664,0.010995565913617611,-0.6290380358695984
1770950709690617600,23.62161767578125,-0.11636973917484283,0.1893680840730667,-0.6302597522735596
1770950709709585000,23.6405849609375,-0.1957821547985077,0.1905898153781891,-0.6473639607429504
1770950709728552200,23.65955224609375,-0.32650721073150635,0.20280711352825165,-0.523969292640686
1770950709747519500,23.67851953125,-0.4401280879974365,0.28466299176216125,-0.22953243553638458
1770950709766487000,23.697487060546877,-0.5170970559120178,0.08429934084415436,-0.03894263133406639
1770950709785454300,23.716454345703124,-0.49144071340560913,-0.2663370370864868,-0.051159925758838654
