time,seconds_elapsed,z,y,x
1770950686210196500,0.141196533203125,-39.22500228881836,-10.18125057220459,-7.068750381469727
1770950686220196600,0.151196533203125,-38.45625305175781,-9.881250381469727,-7.031250476837158
1770950686230196500,0.161196533203125,-38.66250228881836,-10.162500381469727,-7.406250476837158
1770950686270196500,0.201196533203125,-38.10000228881836,-9.975000381469727,-8.137500762939453
1770950686280196600,0.211196533203125,-37.95000076293945,-9.9375,-8.34375
1770950686290196500,0.221196533203125,-37.53750228881836,-10.106250762939453,-8.831250190734863
1770950686300196600,0.231196533203125,-37.48125076293945,-10.18125057220459,-9.65625
1770950686310196500,0.241196533203125,-37.10625076293945,-10.200000762939453,-10.65000057220459
1770950686320196600,0.251196533203125,-36.618751525878906,-10.55625057220459,-12.356250762939453
1770950686330196500,0.261196533203125,-36.712501525878906,-10.893750190734863,-13.55625057220459
1770950686340196600,0.271196533203125,-36.54375076293945,-11.193750381469727,-14.606250762939453
1770950686350196500,0.281196533203125,-36.48750305175781,-11.550000190734863,-15.468750953674316
1770950686360196600,0.291196533203125,-36.431251525878906,-12,-16.575000762939453
1770950686370196500,0.301196533203125,-36.431251525878906,-12.168750762939453,-17.212501525878906
1770950686380196600,0.311196533203125,-36.375,-12.412500381469727,-17.53125
1770950686390196500,0.321196533203125,-36.712501525878906,-12.52500057220459,-17.4375
1770950686400196600,0.331196533203125,-37.181251525878906,-12.412500381469727,-16.181251525878906
1770950686410196500,0.341196533203125,-37.20000076293945,-11.850000381469727,-14.737500190734863
1770950686420196600,0.351196533203125,-37.33125305175781,-11.86875057220459,-13.856250762939453
1770950686430196500,0.361196533203125,-37.53750228881836,-11.850000381469727,-13.46250057220459
1770950686440196600,0.371196533203125,-37.743751525878906,-11.53125,-12.52500057220459
1770950686450196500,0.381196533203125,-38.04375076293945,-11.475000381469727,-11.850000381469727
1770950686460196600,0.391196533203125,-38.38125228881836,-11.34375,-10.631250381469727
1770950686470196500,0.401196533203125,-38.51250076293945,-11.475000381469727,-9.825000762939453
1770950686480196600,0.411196533203125,-38.83125305175781,-11.418750762939453,-9.225000381469727
1770950686490196500,0.421196533203125,-39.056251525878906,-11.606250762939453,-8.831250190734863
1770950686500196600,0.431196533203125,-39.806251525878906,-11.34375,-7.912500381469727
1770950686510196500,0.441196533203125,-40.181251525878906,-11.043750762939453,-6.731250286102295
1770950686520196600,0.451196533203125,-40.57500076293945,-10.96875,-5.681250095367432
1770950686530196500,0.461196533203125,-41.13750076293945,-10.668750762939453,-4.668750286102295
1770950686540196600,0.471196533203125,-41.32500076293945,-10.518750190734863,-4.462500095367432
1770950686550196500,0.481196533203125,-41.625,-10.27500057220459,-3.8812501430511475
1770950686560196600,0.491196533203125,-41.4375,-10.012500762939453,-3.7125000953674316
1770950686570196500,0.501196533203125,-41.66250228881836,-9.99375057220459,-3.5812501907348633
1770950686580196600,0.511196533203125,-41.400001525878906,-10.331250190734863,-3.7875001430511475
1770950686590196500,0.521196533203125,-41.625,-10.6875,-3.937500238418579
1770950686600196600,0.531196533203125,-41.681251525878906,-10.856250762939453,-4.350000381469727
1770950686610196500,0.541196533203125,-41.41875076293945,-11.081250190734863,-5.0625
1770950686620196600,0.551196533203125,-41.26875305175781,-11.40000057220459,-5.643750190734863
1770950686630196500,0.561196533203125,-41.10000228881836,-11.34375,-6.356250286102295
1770950686640196600,0.571196533203125,-41.212501525878906,-11.58750057220459,-6.975000381469727
1770950686650196500,0.581196533203125,-41.0625,-11.756250381469727,-7.893750190734863
1770950686660196600,0.591196533203125,-40.95000076293945,-11.606250762939453,-9.487500190734863
1770950686670196500,0.601196533203125,-41.25,-11.268750190734863,-9.862500190734863
1770950686680196600,0.611196533203125,-41.28750228881836,-11.25,-9.918750762939453
1770950686690196500,0.621196533203125,-41.493751525878906,-10.912500381469727,-9.450000762939453
1770950686700196600,0.631196533203125,-41.56875228881836,-10.575000762939453,-9.112500190734863
1770950686710196500,0.641196533203125,-41.775001525878906,-10.425000190734863,-8.606250762939453
1770950686720196600,0.651196533203125,-42.150001525878906,-10.050000190734863,-8.006250381469727
1770950686730196500,0.661196533203125,-42.50625228881836,-9.5625,-7.312500476837158
1770950686740196600,0.671196533203125,-42.88125228881836,-9.393750190734863,-6.243750095367432
1770950686750196500,0.681196533203125,-42.431251525878906,-9.09375,-6.225000381469727
1770950686760196600,0.691196533203125,-42.65625,-8.8125,-6.393750190734863
1770950686770196500,0.701196533203125,-42.618751525878906,-8.58750057220459,-6.731250286102295
1770950686780196600,0.711196533203125,-42.60000228881836,-8.643750190734863,-6.993750095367432
1770950686790196500,0.721196533203125,-42.60000228881836,-8.606250762939453,-7.293750286102295
1770950686800196600,0.731196533203125,-42.46875,-8.77500057220459,-7.950000286102295
1770950686810196500,0.741196533203125,-42.30000305175781,-8.96250057220459,-8.456250190734863
1770950686820196600,0.751196533203125,-42.22500228881836,-8.86875057220459,-8.58750057220459
1770950686830196500,0.761196533203125,-41.962501525878906,-9.300000190734863,-9.225000381469727
1770950686840196600,0.771196533203125,-41.64375305175781,-9.300000190734863,-9.581250190734863
1770950686850196500,0.781196533203125,-41.56875228881836,-9.637500762939453,-10.40625
1770950686860196600,0.791196533203125,-41.53125,-9.356250762939453,-10.631250381469727
1770950686870196500,0.801196533203125,-41.51250076293945,-9.43125057220459,-11.137500762939453
1770950686880196600,0.811196533203125,-41.32500076293945,-9.43125057220459,-11.475000381469727
1770950686890196500,0.821196533203125,-41.15625,-9.487500190734863,-11.943750381469727
1770950686900196600,0.831196533203125,-41.025001525878906,-9.61875057220459,-12.543750762939453
1770950686910196500,0.841196533203125,-41.025001525878906,-9.5625,-12.581250190734863
1770950686920196600,0.851196533203125,-40.96875,-9.5625,-13.143750190734863
1770950686930196500,0.861196533203125,-40.931251525878906,-9.28125,-13.256250381469727
1770950686940196600,0.871196533203125,-40.81875228881836,-9.450000762939453,-13.968750953674316
1770950686950196500,0.881196533203125,-40.61250305175781,-9.356250762939453,-14.40000057220459
1770950686960196600,0.891196533203125,-40.5,-9.300000190734863,-15.000000953674316
1770950686970196500,0.901196533203125,-40.38750076293945,-9.131250381469727,-15.581250190734863
1770950686980196600,0.911196533203125,-40.33125305175781,-9,-16.068750381469727
1770950686990196500,0.921196533203125,-40.10625076293945,-8.8125,-16.856250762939453
1770950687000196600,0.931196533203125,-39.67500305175781,-8.8125,-17.25
1770950687010196500,0.941196533203125,-39.431251525878906,-8.943750381469727,-17.8125
1770950687020196600,0.951196533203125,-39.375,-8.850000381469727,-18.225000381469727
1770950687030196500,0.961196533203125,-39.09375,-8.793750762939453,-18.806251525878906
1770950687040196600,0.971196533203125,-38.85000228881836,-8.58750057220459,-19.05000114440918
1770950687050196500,0.981196533203125,-38.625,-8.737500190734863,-19.51875114440918
1770950687060196600,0.991196533203125,-38.17500305175781,-8.68125057220459,-19.837501525878906
1770950687070196500,1.001196533203125,-38.04375076293945,-8.568750381469727,-20.025001525878906
1770950687080196600,1.011196533203125,-37.91250228881836,-8.606250762939453,-20.45625114440918
1770950687090196500,1.021196533203125,-37.42500305175781,-8.58750057220459,-20.8125
1770950687100196600,1.031196533203125,-37.29375076293945,-8.756250381469727,-21.20625114440918
1770950687110196500,1.041196533203125,-37.181251525878906,-8.793750762939453,-21.600000381469727
1770950687120196600,1.051196533203125,-36.84375,-9.24375057220459,-22.256250381469727
1770950687130196500,1.061196533203125,-36.45000076293945,-9.131250381469727,-22.743751525878906
1770950687140196600,1.071196533203125,-36.337501525878906,-9.33750057220459,-23.26875114440918
1770950687150196500,1.081196533203125,-35.83125305175781,-9.506250381469727,-23.962501525878906
1770950687160196600,1.091196533203125,-35.79375076293945,-9.61875057220459,-24.150001525878906
1770950687170196500,1.101196533203125,-35.75625228881836,-9.675000190734863,-24.506250381469727
1770950687180196600,1.111196533203125,-35.51250076293945,-9.693750381469727,-24.787500381469727
1770950687190196500,1.121196533203125,-35.10000228881836,-9.862500190734863,-25.218751907348633
1770950687200196600,1.131196533203125,-34.81875228881836,-9.637500762939453,-25.51875114440918
1770950687210196500,1.141196533203125,-34.76250076293945,-9.787500381469727,-25.462501525878906
1770950687220196600,1.151196533203125,-34.96875,-9.61875057220459,-25.725000381469727
1770950687230196500,1.161196533203125,-35.17500305175781,-9.393750190734863,-25.631250381469727
1770950687240196600,1.171196533203125,-35.23125076293945,-9.262500762939453,-26.212501525878906
1770950687250196500,1.181196533203125,-35.28750228881836,-9.28125,-26.381250381469727
1770950687260196600,1.191196533203125,-35.53125,-9.09375,-26.437501907348633
1770950687270196500,1.201196533203125,-35.681251525878906,-9.05625057220459,-26.343751907348633
1770950687280196600,1.211196533203125,-35.98125076293945,-8.943750381469727,-26.17500114440918
1770950687290196500,1.221196533203125,-36.13125228881836,-8.68125057220459,-26.36250114440918
1770950687300196600,1.231196533203125,-36.1875,-8.96250057220459,-26.418750762939453
1770950687310196500,1.241196533203125,-36.13125228881836,-9.393750190734863,-26.73750114440918
1770950687320196600,1.251196533203125,-36.243751525878906,-9.450000762939453,-26.700000762939453
1770950687330196500,1.261196533203125,-36.50625228881836,-9.375,-26.606250762939453
1770950687340196600,1.271196533203125,-36.54375076293945,-9.43125057220459,-26.756250381469727
1770950687350196500,1.281196533203125,-36.712501525878906,-9.375,-26.775001525878906
1770950687360196600,1.291196533203125,-36.91875076293945,-9.506250381469727,-26.756250381469727
1770950687370196500,1.301196533203125,-37.21875,-9.862500190734863,-26.756250381469727
1770950687380196600,1.311196533203125,-37.01250076293945,-9.862500190734863,-26.662500381469727
1770950687390196500,1.321196533203125,-37.29375076293945,-9.768750190734863,-26.45625114440918
1770950687400196600,1.331196533203125,-37.40625,-9.956250190734863,-26.137500762939453
1770950687410196500,1.341196533203125,-37.48125076293945,-10.387500762939453,-26.193750381469727
1770950687420196600,1.351196533203125,-37.57500076293945,-10.856250762939453,-26.212501525878906
1770950687430196500,1.361196533203125,-37.98750305175781,-11.11875057220459,-25.950000762939453
1770950687440196600,1.371196533203125,-38.19375228881836,-11.49375057220459,-25.818750381469727
1770950687450196500,1.381196533203125,-38.23125076293945,-11.925000190734863,-25.650001525878906
1770950687460196600,1.391196533203125,-38.60625076293945,-12.262500762939453,-25.406251907348633
1770950687470196500,1.401196533203125,-38.45625305175781,-12.843750953674316,-25.856250762939453
1770950687480196600,1.411196533203125,-38.41875076293945,-13.218750953674316,-26.531251907348633
1770950687490196500,1.421196533203125,-38.32500076293945,-13.575000762939453,-27.356250762939453
1770950687500196600,1.431196533203125,-38.212501525878906,-13.950000762939453,-27.731250762939453
1770950687510196500,1.441196533203125,-37.96875,-14.437500953674316,-28.575000762939453
1770950687520196600,1.451196533203125,-37.72500228881836,-15.000000953674316,-29.325000762939453
1770950687530196500,1.461196533203125,-37.44375228881836,-15.543750762939453,-30.900001525878906
1770950687540196600,1.471196533203125,-37.25625228881836,-15.99375057220459,-32.493751525878906
1770950687550196500,1.481196533203125,-37.20000076293945,-16.575000762939453,-33.75
1770950687560196600,1.491196533203125,-37.29375076293945,-17.100000381469727,-34.21875
1770950687570196500,1.501196533203125,-37.38750076293945,-17.662500381469727,-34.275001525878906
1770950687580196600,1.511196533203125,-37.51875305175781,-18.037500381469727,-34.556251525878906
1770950687590196500,1.521196533203125,-37.95000076293945,-18.48750114440918,-34.76250076293945
1770950687600196600,1.531196533203125,-38.26875305175781,-18.75,-34.875
1770950687610196500,1.541196533203125,-38.73750305175781,-18.95625114440918,-33.91875076293945
1770950687620196600,1.551196533203125,-39.22500228881836,-19.42500114440918,-33.09375
1770950687630196500,1.561196533203125,-39.69375228881836,-19.59375,-32.04375076293945
1770950687640196600,1.571196533203125,-39.78750228881836,-19.59375,-31.687501907348633
1770950687650196500,1.581196533203125,-40.06875228881836,-19.51875114440918,-31.406251907348633
1770950687660196600,1.591196533203125,-40.14375305175781,-19.575000762939453,-31.51875114440918
1770950687670196500,1.601196533203125,-40.01250076293945,-19.80000114440918,-31.481250762939453
1770950687680196600,1.611196533203125,-40.14375305175781,-19.875,-31.293750762939453
1770950687690196500,1.621196533203125,-40.087501525878906,-19.931251525878906,-31.218751907348633
1770950687700196600,1.631196533203125,-40.05000305175781,-19.818750381469727,-31.031251907348633
1770950687710196500,1.641196533203125,-40.5,-19.481250762939453,-30.918750762939453
1770950687720196600,1.651196533203125,-40.743751525878906,-19.462501525878906,-30.656251907348633
1770950687730196500,1.661196533203125,-41.0625,-19.068750381469727,-30.168750762939453
1770950687740196600,1.671196533203125,-41.681251525878906,-18.86250114440918,-29.306251525878906
1770950687750196500,1.681196533203125,-42.1875,-18.412500381469727,-28.51875114440918
1770950687760196600,1.691196533203125,-42.525001525878906,-18.1875,-27.881250381469727
1770950687770196500,1.701196533203125,-43.087501525878906,-17.83125114440918,-27.262500762939453
1770950687780196600,1.711196533203125,-43.743751525878906,-17.625,-26.83125114440918
1770950687790196500,1.721196533203125,-43.89375305175781,-17.73750114440918,-26.493751525878906
1770950687800196600,1.731196533203125,-44.28750228881836,-17.756250381469727,-26.306251525878906
1770950687810196500,1.741196533203125,-44.53125,-17.981250762939453,-26.531251907348633
1770950687820196600,1.751196533203125,-44.34375,-18.01875114440918,-26.812501907348633
1770950687830196500,1.761196533203125,-44.36250305175781,-18,-27.20625114440918
1770950687840196600,1.771196533203125,-44.66250228881836,-17.8125,-27.712501525878906
1770950687850196500,1.781196533203125,-44.53125,-17.756250381469727,-28.33125114440918
1770950687860196600,1.791196533203125,-44.306251525878906,-17.475000381469727,-28.70625114440918
1770950687870196500,1.801196533203125,-44.38125228881836,-17.36250114440918,-29.118751525878906
1770950687880196600,1.811196533203125,-44.587501525878906,-17.043750762939453,-29.250001907348633
1770950687890196500,1.821196533203125,-44.400001525878906,-16.668750762939453,-29.250001907348633
1770950687900196600,1.831196533203125,-44.73750305175781,-16.6875,-29.587501525878906
1770950687910196500,1.841196533203125,-44.60625076293945,-16.42500114440918,-29.662500381469727
1770950687920196600,1.851196533203125,-44.23125076293945,-16.368751525878906,-30.01875114440918
1770950687930196500,1.861196533203125,-44.32500076293945,-16.23750114440918,-30.000001907348633
1770950687940196600,1.871196533203125,-44.34375,-16.350000381469727,-30.30000114440918
1770950687950196500,1.881196533203125,-44.400001525878906,-16.293750762939453,-30.525001525878906
1770950687960196600,1.891196533203125,-44.400001525878906,-16.387500762939453,-30.637500762939453
1770950687970196500,1.901196533203125,-44.681251525878906,-16.443750381469727,-31.087501525878906
1770950687980196600,1.911196533203125,-44.306251525878906,-16.162500381469727,-31.162500381469727
1770950687990196500,1.921196533203125,-44.4375,-16.275001525878906,-31.668750762939453
1770950688000196600,1.931196533203125,-44.681251525878906,-16.23750114440918,-31.70625114440918
1770950688010196500,1.941196533203125,-44.60625076293945,-16.05000114440918,-31.98750114440918
1770950688020196600,1.951196533203125,-44.212501525878906,-16.012500762939453,-32.400001525878906
1770950688030196500,1.961196533203125,-44.19375228881836,-15.862500190734863,-32.681251525878906
1770950688040196600,1.971196533203125,-43.81875228881836,-15.787500381469727,-33
1770950688050196500,1.981196533203125,-43.70625305175781,-15.693750381469727,-33.35625076293945
1770950688060196600,1.991196533203125,-43.650001525878906,-15.862500190734863,-33.78750228881836
1770950688070196500,2.001196533203125,-43.20000076293945,-15.956250190734863,-34.01250076293945
1770950688080196600,2.011196533203125,-42.78750228881836,-15.90000057220459,-34.76250076293945
1770950688090196500,2.021196533203125,-42.5625,-15.99375057220459,-35.19375228881836
1770950688100196600,2.031196533203125,-42.58125305175781,-15.99375057220459,-35.66250228881836
1770950688110196500,2.041196533203125,-42.35625076293945,-16.256250381469727,-35.98125076293945
1770950688120196600,2.051196533203125,-42.28125,-16.23750114440918,-36.67500305175781
1770950688130196500,2.061196533203125,-41.962501525878906,-16.51875114440918,-36.95625305175781
1770950688140196600,2.071196533203125,-42.22500228881836,-16.443750381469727,-37.275001525878906
1770950688150196500,2.081196533203125,-42.431251525878906,-16.387500762939453,-37.53750228881836
1770950688160196600,2.091196533203125,-42.712501525878906,-16.387500762939453,-37.42500305175781
1770950688170196500,2.101196533203125,-43.16250228881836,-16.481250762939453,-37.462501525878906
1770950688180196600,2.111196533203125,-43.6875,-16.40625,-37.462501525878906
1770950688190196500,2.121196533203125,-44.025001525878906,-16.03125,-37.462501525878906
1770950688200196600,2.131196533203125,-44.4375,-16.087501525878906,-37.40625
1770950688210196500,2.141196533203125,-44.868751525878906,-15.843750953674316,-37.368751525878906
1770950688220196600,2.151196533203125,-44.8125,-15.99375057220459,-37.23750305175781
1770950688230196500,2.161196533203125,-45.22500228881836,-16.200000762939453,-37.40625
1770950688240196600,2.171196533203125,-45.28125,-16.575000762939453,-37.837501525878906
1770950688250196500,2.181196533203125,-45.50625228881836,-16.631250381469727,-38.38125228881836
1770950688260196600,2.191196533203125,-45.31875228881836,-16.856250762939453,-38.75625228881836
1770950688270196500,2.201196533203125,-45.20625305175781,-17.325000762939453,-39.375
1770950688280196600,2.211196533203125,-45.243751525878906,-17.45625114440918,-39.86250305175781
1770950688290196500,2.221196533203125,-45.35625076293945,-17.90625,-40.66875076293945
1770950688300196600,2.231196533203125,-45.618751525878906,-17.92500114440918,-41.17500305175781
1770950688310196500,2.241196533203125,-45.48750305175781,-17.681251525878906,-41.75625228881836
1770950688320196600,2.251196533203125,-45.60000228881836,-17.55000114440918,-42.243751525878906
1770950688330196500,2.261196533203125,-45.337501525878906,-17.568750381469727,-42.46875
1770950688340196600,2.271196533203125,-45.54375076293945,-17.493751525878906,-42.82500076293945
1770950688350196500,2.281196533203125,-45.9375,-17.25,-42.431251525878906
1770950688360196600,2.291196533203125,-46.21875,-17.53125,-42.431251525878906
1770950688370196500,2.301196533203125,-45.95625305175781,-17.625,-42.28125
1770950688380196600,2.311196533203125,-45.82500076293945,-17.775001525878906,-42.48750305175781
1770950688390196500,2.321196533203125,-45.82500076293945,-18.1875,-42.46875
1770950688400196600,2.331196533203125,-45.86250305175781,-18.525001525878906,-42.28125
1770950688410196500,2.341196533203125,-45.86250305175781,-18.918750762939453,-42.22500228881836
1770950688420196600,2.351196533203125,-45.86250305175781,-19.14375114440918,-42.03750228881836
1770950688430196500,2.361196533203125,-45.48750305175781,-19.61250114440918,-42.48750305175781
1770950688440196600,2.371196533203125,-45.243751525878906,-19.6875,-42.58125305175781
1770950688450196500,2.381196533203125,-45.30000305175781,-19.950000762939453,-42.50625228881836
1770950688460196600,2.391196533203125,-45.525001525878906,-20.26875114440918,-42.39375305175781
1770950688470196500,2.401196533203125,-45.76875305175781,-20.64375114440918,-42.31875228881836
1770950688480196600,2.411196533203125,-45.86250305175781,-20.850000381469727,-42.1875
1770950688490196500,2.421196533203125,-45.78750228881836,-21.075000762939453,-42.07500076293945
1770950688500196600,2.431196533203125,-45.86250305175781,-21.506250381469727,-41.962501525878906
1770950688510196500,2.441196533203125,-45.86250305175781,-22.05000114440918,-41.88750076293945
1770950688520196600,2.451196533203125,-46.087501525878906,-22.59375,-42
1770950688530196500,2.461196533203125,-46.16250228881836,-22.912500381469727,-41.70000076293945
1770950688540196600,2.471196533203125,-46.06875228881836,-23.212501525878906,-41.587501525878906
1770950688550196500,2.481196533203125,-46.087501525878906,-23.64375114440918,-41.26875305175781
1770950688560196600,2.491196533203125,-46.181251525878906,-24.318750381469727,-40.95000076293945
1770950688570196500,2.501196533203125,-46.57500076293945,-25.031251907348633,-40.53750228881836
1770950688580196600,2.511196533203125,-46.5,-25.781251907348633,-40.33125305175781
1770950688590196500,2.521196533203125,-46.66875076293945,-26.231250762939453,-40.14375305175781
1770950688600196600,2.531196533203125,-46.42500305175781,-26.868751525878906,-39.900001525878906
1770950688610196500,2.541196533203125,-46.57500076293945,-27.693750381469727,-40.14375305175781
1770950688620196600,2.551196533203125,-46.53750228881836,-28.70625114440918,-39.97500228881836
1770950688630196500,2.561196533203125,-46.38750076293945,-29.493751525878906,-39.993751525878906
1770950688640196600,2.571196533203125,-46.48125076293945,-30.01875114440918,-40.01250076293945
1770950688650196500,2.581196533203125,-46.59375,-30.656251907348633,-40.10625076293945
1770950688660196600,2.591196533203125,-46.650001525878906,-31.33125114440918,-40.23750305175781
1770950688670196500,2.601196533203125,-46.76250076293945,-31.875001907348633,-40.25625228881836
1770950688680196600,2.611196533203125,-46.875,-32.17500305175781,-39.86250305175781
1770950688690196500,2.621196533203125,-46.875,-32.493751525878906,-39.5625
1770950688700196600,2.631196533203125,-47.17500305175781,-32.73750305175781,-39.243751525878906
1770950688710196500,2.641196533203125,-47.493751525878906,-32.94375228881836,-38.73750305175781
1770950688720196600,2.651196533203125,-47.66250228881836,-33.1875,-38.212501525878906
1770950688730196500,2.661196533203125,-47.51250076293945,-33.35625076293945,-38.400001525878906
1770950688740196600,2.671196533203125,-47.775001525878906,-33.45000076293945,-38.212501525878906
1770950688750196500,2.681196533203125,-47.85000228881836,-33.712501525878906,-38.15625
1770950688760196600,2.691196533203125,-48.07500076293945,-34.05000305175781,-38.13750076293945
1770950688780196600,2.711196533203125,-48.07500076293945,-34.66875076293945,-39
1770950688790196500,2.721196533203125,-47.98125076293945,-34.6875,-39.09375
1770950688800196600,2.731196533203125,-47.85000228881836,-34.96875,-39.20625305175781
1770950688810196500,2.741196533203125,-47.868751525878906,-34.96875,-39
1770950688820196600,2.751196533203125,-48.056251525878906,-34.85625076293945,-38.4375
1770950688830196500,2.761196533203125,-48.50625228881836,-34.743751525878906,-38.0625
1770950688840196600,2.771196533203125,-48.78750228881836,-34.59375,-37.78125
1770950688850196500,2.781196533203125,-49.05000305175781,-34.38750076293945,-37.275001525878906
1770950688860196600,2.791196533203125,-49.57500076293945,-33.84375,-36.48750305175781
1770950688870196500,2.801196533203125,-50.250003814697266,-33.78750228881836,-36.20625305175781
1770950688880196600,2.811196533203125,-50.41875076293945,-33.48750305175781,-36.056251525878906
1770950688890196500,2.821196533203125,-50.718753814697266,-33.337501525878906,-35.79375076293945
1770950688900196600,2.831196533203125,-50.88750076293945,-33.243751525878906,-36.056251525878906
1770950688910196500,2.841196533203125,-50.812503814697266,-33.03750228881836,-35.88750076293945
1770950688920196600,2.851196533203125,-50.587501525878906,-32.92500305175781,-36.09375
1770950688930196500,2.861196533203125,-50.47500228881836,-32.90625,-36.337501525878906
1770950688940196600,2.871196533203125,-50.17500305175781,-33.13125228881836,-36.30000305175781
1770950688950196500,2.881196533203125,-49.781253814697266,-33.03750228881836,-36.41250228881836
1770950688960196600,2.891196533203125,-49.76250076293945,-33.09375,-36.73125076293945
1770950688970196500,2.901196533203125,-49.66875076293945,-33.09375,-36.76875305175781
1770950688980196600,2.911196533203125,-49.70625305175781,-33.03750228881836,-36.48750305175781
1770950688990196500,2.921196533203125,-49.53750228881836,-32.88750076293945,-36.50625228881836
1770950689000196600,2.931196533203125,-49.650001525878906,-32.625,-36.431251525878906
1770950689010196500,2.941196533203125,-49.650001525878906,-32.19375228881836,-36.35625076293945
1770950689020196600,2.951196533203125,-49.95000076293945,-31.743751525878906,-36.431251525878906
1770950689030196500,2.961196533203125,-50.250003814697266,-31.462501525878906,-36.54375076293945
1770950689040196600,2.971196533203125,-50.28750228881836,-31.012500762939453,-36.65625
1770950689050196500,2.981196533203125,-50.55000305175781,-30.39375114440918,-36.41250228881836
1770950689060196600,2.991196533203125,-50.36250305175781,-29.83125114440918,-36.50625228881836
1770950689070196500,3.001196533203125,-50.493751525878906,-29.493751525878906,-36.82500076293945
1770950689080196600,3.011196533203125,-50.625003814697266,-29.287500381469727,-37.05000305175781
1770950689090196500,3.021196533203125,-50.94375228881836,-28.875001907348633,-37.10625076293945
1770950689100196600,3.031196533203125,-50.70000076293945,-28.762500762939453,-37.35000228881836
1770950689110196500,3.041196533203125,-50.38125228881836,-28.593751907348633,-37.6875
1770950689120196600,3.051196533203125,-50.32500076293945,-28.481250762939453,-37.76250076293945
1770950689130196500,3.061196533203125,-50.04375076293945,-28.725000381469727,-38.4375
1770950689140196600,3.071196533203125,-50.08125305175781,-28.856250762939453,-38.94375228881836
1770950689150196500,3.081196533203125,-49.80000305175781,-29.062501907348633,-39.20625305175781
1770950689160196600,3.091196533203125,-49.218753814697266,-29.156251907348633,-39.22500228881836
1770950689170196500,3.101196533203125,-48.73125076293945,-29.662500381469727,-39.618751525878906
1770950689180196600,3.111196533203125,-48.31875228881836,-29.850000381469727,-39.95625305175781
1770950689190196500,3.121196533203125,-48.01875305175781,-30.131250381469727,-40.14375305175781
1770950689200196600,3.131196533203125,-47.51250076293945,-30.67500114440918,-40.368751525878906
1770950689210196500,3.141196533203125,-47.212501525878906,-31.068750381469727,-40.650001525878906
1770950689220196600,3.151196533203125,-46.78125,-31.462501525878906,-40.95000076293945
1770950689230196500,3.161196533203125,-46.40625,-31.762500762939453,-41.10000228881836
1770950689240196600,3.171196533203125,-46.42500305175781,-32.025001525878906,-41.38125228881836
1770950689250196500,3.181196533203125,-46.05000305175781,-32.36250305175781,-41.25
1770950689260196600,3.191196533203125,-46.125,-32.962501525878906,-41.625
1770950689270196500,3.201196533203125,-45.69375228881836,-33.35625076293945,-41.88750076293945
1770950689280196600,3.211196533203125,-45.243751525878906,-33.525001525878906,-42.16875076293945
1770950689290196500,3.221196533203125,-44.868751525878906,-33.993751525878906,-42.45000076293945
1770950689300196600,3.231196533203125,-44.34375,-34.38750076293945,-42.88125228881836
1770950689310196500,3.241196533203125,-44.025001525878906,-34.875,-43.20000076293945
1770950689320196600,3.251196533203125,-43.61250305175781,-35.53125,-43.6875
1770950689330196500,3.261196533203125,-43.462501525878906,-36.01875305175781,-44.41875076293945
1770950689340196600,3.271196533203125,-42.69375228881836,-36.28125,-44.55000305175781
1770950689350196500,3.281196533203125,-42.5625,-36.431251525878906,-44.4375
1770950689360196600,3.291196533203125,-42.5625,-36.65625,-44.38125228881836
1770950689370196500,3.301196533203125,-42.46875,-36.9375,-43.98750305175781
1770950689380196600,3.311196533203125,-42.39375305175781,-37.10625076293945,-43.650001525878906
1770950689390196500,3.321196533203125,-42.22500228881836,-37.23750305175781,-43.44375228881836
1770950689400196600,3.331196533203125,-42.30000305175781,-37.23750305175781,-42.91875076293945
1770950689410196500,3.341196533203125,-42.16875076293945,-37.368751525878906,-42.30000305175781
1770950689420196600,3.351196533203125,-42.39375305175781,-37.44375228881836,-41.79375076293945
1770950689430196500,3.361196533203125,-42.431251525878906,-37.76250076293945,-41.79375076293945
1770950689440196600,3.371196533203125,-42.63750076293945,-37.96875,-41.38125228881836
1770950689450196500,3.381196533203125,-42.41250228881836,-38.13750076293945,-41.23125076293945
1770950689460196600,3.391196533203125,-42.35625076293945,-38.625,-41.25
1770950689470196500,3.401196533203125,-42.48750305175781,-38.94375228881836,-41.0625
1770950689480196600,3.411196533203125,-42.09375,-39.03750228881836,-40.80000305175781
1770950689490196500,3.421196533203125,-41.88750076293945,-39.28125,-40.6875
1770950689500196600,3.431196533203125,-41.681251525878906,-39.67500305175781,-40.81875228881836
1770950689510196500,3.441196533203125,-41.17500305175781,-40.03125,-40.78125
1770950689520196600,3.451196533203125,-40.59375,-40.40625,-40.96875
1770950689530196500,3.461196533203125,-40.44375228881836,-40.368751525878906,-40.89375305175781
1770950689540196600,3.471196533203125,-40.3125,-40.42500305175781,-40.40625
1770950689550196500,3.481196533203125,-39.82500076293945,-40.63125228881836,-40.23750305175781
1770950689560196600,3.491196533203125,-39.63750076293945,-41.04375076293945,-40.20000076293945
1770950689570196500,3.501196533203125,-39.337501525878906,-41.25,-40.25625228881836
1770950689580196600,3.511196533203125,-39.1875,-41.34375,-39.82500076293945
1770950689590196500,3.521196533203125,-38.75625228881836,-41.493751525878906,-39.54375076293945
1770950689600196600,3.531196533203125,-38.587501525878906,-41.71875,-39.20625305175781
1770950689610196500,3.541196533203125,-38.51250076293945,-42.1875,-39.13125228881836
1770950689620196600,3.551196533203125,-37.98750305175781,-42.58125305175781,-39.20625305175781
1770950689630196500,3.561196533203125,-37.81875228881836,-43.03125,-39.09375
1770950689640196600,3.571196533203125,-37.33125305175781,-43.368751525878906,-39.28125
1770950689650196500,3.581196533203125,-36.993751525878906,-44.025001525878906,-39.13125228881836
1770950689660196600,3.591196533203125,-36.26250076293945,-44.587501525878906,-38.962501525878906
1770950689670196500,3.601196533203125,-36.22500228881836,-45.056251525878906,-38.83125305175781
1770950689680196600,3.611196533203125,-35.90625,-45.63750076293945,-38.79375076293945
1770950689690196500,3.621196533203125,-35.38125228881836,-46.087501525878906,-38.4375
1770950689700196600,3.631196533203125,-35.400001525878906,-46.650001525878906,-38.13750076293945
1770950689710196500,3.641196533203125,-35.25,-46.875,-37.743751525878906
1770950689720196600,3.651196533203125,-35.56875228881836,-47.400001525878906,-37.275001525878906
1770950689730196500,3.661196533203125,-35.681251525878906,-47.70000076293945,-36.65625
1770950689740196600,3.671196533203125,-36.150001525878906,-47.962501525878906,-36.337501525878906
1770950689750196500,3.681196533203125,-36.30000305175781,-48.281253814697266,-35.868751525878906
1770950689760196600,3.691196533203125,-36.45000076293945,-48.60000228881836,-35.400001525878906
1770950689770196500,3.701196533203125,-36.54375076293945,-48.76875305175781,-35.10000228881836
1770950689780196600,3.711196533203125,-36.431251525878906,-48.656253814697266,-34.743751525878906
1770950689790196500,3.721196533203125,-36.41250228881836,-48.78750228881836,-34.70625305175781
1770950689800196600,3.731196533203125,-36.243751525878906,-48.937503814697266,-34.29375076293945
1770950689810196500,3.741196533203125,-36.375,-48.78750228881836,-34.3125
1770950689820196600,3.751196533203125,-36.11250305175781,-48.60000228881836,-34.25625228881836
1770950689830196500,3.761196533203125,-36.150001525878906,-48.281253814697266,-34.01250076293945
1770950689840196600,3.771196533203125,-36.337501525878906,-48.056251525878906,-33.78750228881836
1770950689850196500,3.781196533203125,-36.82500076293945,-47.70000076293945,-33.525001525878906
1770950689860196600,3.791196533203125,-37.125,-47.55000305175781,-33.50625228881836
1770950689870196500,3.801196533203125,-37.275001525878906,-47.04375076293945,-33.375
1770950689880196600,3.811196533203125,-37.38750076293945,-46.48125076293945,-33.97500228881836
1770950689890196500,3.821196533203125,-37.6875,-45.82500076293945,-34.01250076293945
1770950689900196600,3.831196533203125,-38.10000228881836,-45.1875,-34.06875228881836
1770950689910196500,3.841196533203125,-38.400001525878906,-44.55000305175781,-34.57500076293945
1770950689920196600,3.851196533203125,-38.868751525878906,-43.63125228881836,-34.89375305175781
1770950689930196500,3.861196533203125,-39.09375,-42.78750228881836,-35.23125076293945
1770950689940196600,3.871196533203125,-39.712501525878906,-41.92500305175781,-35.15625
1770950689950196500,3.881196533203125,-40.556251525878906,-41.17500305175781,-35.28750228881836
1770950689960196600,3.891196533203125,-41.36250305175781,-40.35000228881836,-35.0625
1770950689970196500,3.901196533203125,-41.775001525878906,-39.22500228881836,-35.212501525878906
1770950689980196600,3.911196533203125,-42.50625228881836,-38.19375228881836,-35.73750305175781
1770950689990196500,3.921196533203125,-43.29375076293945,-36.95625305175781,-36.01875305175781
1770950690000196600,3.931196533203125,-43.81875228881836,-35.83125305175781,-36.618751525878906
1770950690010196500,3.941196533203125,-44.212501525878906,-34.61250305175781,-37.837501525878906
1770950690020196600,3.951196533203125,-44.962501525878906,-33.03750228881836,-38.625
1770950690030196500,3.961196533203125,-45.9375,-31.406251907348633,-38.775001525878906
1770950690040196600,3.971196533203125,-46.78125,-29.36250114440918,-38.75625228881836
1770950690050196500,3.981196533203125,-48.13125228881836,-27.637500762939453,-38.47500228881836
1770950690060196600,3.991196533203125,-48.63750076293945,-26.36250114440918,-38.868751525878906
1770950690070196500,4.001196533203125,-49.38750076293945,-25.106250762939453,-39.63750076293945
1770950690080196600,4.011196533203125,-50.343753814697266,-23.8125,-40.16250228881836
1770950690090196500,4.021196533203125,-51.30000305175781,-22.650001525878906,-38.92500305175781
1770950690100196600,4.031196533203125,-52.05000305175781,-22.012500762939453,-37.66875076293945
1770950690110196500,4.041196533203125,-52.181251525878906,-21.506250381469727,-36.900001525878906
1770950690120196600,4.051196533203125,-52.70625305175781,-21.5625,-36.22500228881836
1770950690130196500,4.061196533203125,-52.53750228881836,-21.84375,-35.85000228881836
1770950690140196600,4.071196533203125,-53.212501525878906,-21.67500114440918,-34.21875
1770950690150196500,4.081196533203125,-53.531253814697266,-22.012500762939453,-32.45625305175781
1770950690160196600,4.091196533203125,-53.85000228881836,-22.012500762939453,-30.48750114440918
1770950690170196500,4.101196533203125,-53.73750305175781,-22.668750762939453,-29.887500762939453
1770950690180196600,4.111196533203125,-53.681251525878906,-22.950000762939453,-29.475000381469727
1770950690190196500,4.121196533203125,-54.01875305175781,-23.137500762939453,-28.61250114440918
1770950690200196600,4.131196533203125,-54.20625305175781,-23.025001525878906,-27.431251525878906
1770950690210196500,4.141196533203125,-54.937503814697266,-22.89375114440918,-26.062501907348633
1770950690220196600,4.151196533203125,-55.23750305175781,-22.818750381469727,-25.218751907348633
1770950690230196500,4.161196533203125,-55.650001525878906,-22.537500381469727,-23.868751525878906
1770950690240196600,4.171196533203125,-55.85625076293945,-22.6875,-22.762500762939453
1770950690250196500,4.181196533203125,-56.400001525878906,-22.181251525878906,-21.881250381469727
1770950690260196600,4.191196533203125,-56.587501525878906,-22.21875,-21.262500762939453
1770950690270196500,4.201196533203125,-56.56875228881836,-22.481250762939453,-20.962501525878906
1770950690280196600,4.211196533203125,-56.66250228881836,-22.70625114440918,-20.8125
1770950690290196500,4.221196533203125,-56.32500076293945,-23.17500114440918,-20.868751525878906
1770950690300196600,4.231196533203125,-56.36250305175781,-23.71875,-20.4375
1770950690310196500,4.241196533203125,-56.531253814697266,-24.243751525878906,-20.006250381469727
1770950690320196600,4.251196533203125,-56.13750076293945,-24.468751907348633,-19.875
1770950690330196500,4.261196533203125,-56.493751525878906,-24.637500762939453,-19.293750762939453
1770950690340196600,4.271196533203125,-56.79375076293945,-24.337501525878906,-18.806251525878906
1770950690350196500,4.281196533203125,-57.000003814697266,-24.093751907348633,-18.825000762939453
1770950690360196600,4.291196533203125,-57.41250228881836,-23.775001525878906,-18.975000381469727
1770950690370196500,4.301196533203125,-57.656253814697266,-23.36250114440918,-19.42500114440918
1770950690380196600,4.311196533203125,-57.375003814697266,-22.575000762939453,-20.287500381469727
1770950690390196500,4.321196533203125,-57.056251525878906,-21.76875114440918,-21.46875
1770950690400196600,4.331196533203125,-57.39375305175781,-20.962501525878906,-22.631250381469727
1770950690410196500,4.341196533203125,-56.962501525878906,-20.418750762939453,-24.20625114440918
1770950690420196600,4.351196533203125,-56.493751525878906,-19.856250762939453,-26.118751525878906
1770950690430196500,4.361196533203125,-56.38125228881836,-19.5,-27.431251525878906
1770950690440196600,4.371196533203125,-56.118751525878906,-19.14375114440918,-29.231250762939453
1770950690450196500,4.381196533203125,-56.32500076293945,-18.58125114440918,-30.037500381469727
1770950690460196600,4.391196533203125,-56.868751525878906,-18.056251525878906,-30.900001525878906
1770950690470196500,4.401196533203125,-56.92500305175781,-17.662500381469727,-31.687501907348633
1770950690480196600,4.411196533203125,-57.03750228881836,-17.512500762939453,-32.38125228881836
1770950690490196500,4.421196533203125,-57.50625228881836,-17.325000762939453,-33.13125228881836
1770950690500196600,4.431196533203125,-57.712501525878906,-17.0625,-34.21875
1770950690510196500,4.441196533203125,-57.750003814697266,-16.537500381469727,-34.85625076293945
1770950690520196600,4.451196533203125,-57.750003814697266,-16.106250762939453,-35.00625228881836
1770950690530196500,4.461196533203125,-57.88125228881836,-15.375000953674316,-35.56875228881836
1770950690540196600,4.471196533203125,-57.76875305175781,-14.531250953674316,-36.30000305175781
1770950690550196500,4.481196533203125,-58.33125305175781,-13.46250057220459,-36.78750228881836
1770950690560196600,4.491196533203125,-58.76250076293945,-12.15000057220459,-36.58125305175781
1770950690570196500,4.501196533203125,-58.76250076293945,-10.78125,-36.16875076293945
1770950690580196600,4.511196533203125,-59.28750228881836,-9.075000762939453,-34.98750305175781
1770950690590196500,4.521196533203125,-60.03750228881836,-7.162500381469727,-33.712501525878906
1770950690600196600,4.531196533203125,-60.618751525878906,-5.231250286102295,-32.70000076293945
1770950690610196500,4.541196533203125,-60.937503814697266,-3.731250047683716,-31.481250762939453
1770950690620196600,4.551196533203125,-61.44375228881836,-2.2875001430511475,-29.73750114440918
1770950690630196500,4.561196533203125,-61.72500228881836,-0.9750000238418579,-28.05000114440918
1770950690640196600,4.571196533203125,-62.04375076293945,0.07500000298023224,-26.981250762939453
1770950690650196500,4.581196533203125,-62.625003814697266,1.2750000953674316,-25.443750381469727
1770950690660196600,4.591196533203125,-63.01875305175781,2.0250000953674316,-23.981250762939453
1770950690670196500,4.601196533203125,-63.26250076293945,2.7562501430511475,-22.856250762939453
1770950690680196600,4.611196533203125,-63.50625228881836,3.0562500953674316,-21.375
1770950690690196500,4.621196533203125,-63.54375076293945,3.3937501907348633,-20.08125114440918
1770950690700196600,4.631196533203125,-63.375003814697266,3.6937501430511475,-18.525001525878906
1770950690710196500,4.641196533203125,-63.618751525878906,4.068750381469727,-16.59375
1770950690720196600,4.651196533203125,-63.41250228881836,4.40625,-14.662500381469727
1770950690730196500,4.661196533203125,-63.03750228881836,4.462500095367432,-13.350000381469727
1770950690740196600,4.671196533203125,-62.88750076293945,4.237500190734863,-11.287500381469727
1770950690760196600,4.691196533203125,-62.32500076293945,3.731250047683716,-7.575000286102295
1770950690770196500,4.701196533203125,-62.025001525878906,3.6000001430511475,-5.831250190734863
1770950690780196600,4.711196533203125,-61.91250228881836,3.093750238418579,-4.106250286102295
1770950690790196500,4.721196533203125,-60.95625305175781,2.53125,-2.793750047683716
1770950690800196600,4.731196533203125,-60.48750305175781,1.6687500476837158,-1.1062500476837158
1770950690810196500,4.741196533203125,-60.26250076293945,0.7875000238418579,1.2375000715255737
1770950690820196600,4.751196533203125,-59.625003814697266,-0.3375000059604645,2.5500001907348633
1770950690830196500,4.761196533203125,-59.13750076293945,-1.8375000953674316,4.143750190734863
1770950690840196600,4.771196533203125,-58.556251525878906,-2.9250001907348633,5.493750095367432
1770950690850196500,4.781196533203125,-58.01250076293945,-4.612500190734863,6.656250476837158
1770950690860196600,4.791196533203125,-57.656253814697266,-6.131250381469727,7.181250095367432
1770950690870196500,4.801196533203125,-57.656253814697266,-7.668750286102295,8.11875057220459
1770950690880196600,4.811196533203125,-57.22500228881836,-9,8.21250057220459
1770950690890196500,4.821196533203125,-57.30000305175781,-10.55625057220459,7.950000286102295
1770950690900196600,4.831196533203125,-57.150001525878906,-11.71875,8.043750762939453
1770950690910196500,4.841196533203125,-57.41250228881836,-12.881250381469727,8.418750762939453
1770950690920196600,4.851196533203125,-57.187503814697266,-13.987500190734863,8.268750190734863
1770950690930196500,4.861196533203125,-57.281253814697266,-14.568750381469727,8.137500762939453
1770950690940196600,4.871196533203125,-57.31875228881836,-15.468750953674316,8.49375057220459
1770950690950196500,4.881196533203125,-57.187503814697266,-16.537500381469727,8.550000190734863
1770950690960196600,4.891196533203125,-57.337501525878906,-17.25,9.09375
1770950690970196500,4.901196533203125,-56.812503814697266,-17.493751525878906,9.450000762939453
1770950690980196600,4.911196533203125,-56.681251525878906,-17.606250762939453,9.450000762939453
1770950690990196500,4.921196533203125,-56.250003814697266,-17.287500381469727,9.1875
1770950691000196600,4.931196533203125,-56.587501525878906,-16.96875,9.731250762939453
1770950691010196500,4.941196533203125,-56.718753814697266,-16.350000381469727,10.425000190734863
1770950691020196600,4.951196533203125,-56.70000076293945,-15.562500953674316,10.725000381469727
1770950691030196500,4.961196533203125,-56.83125305175781,-14.343750953674316,10.762500762939453
1770950691040196600,4.971196533203125,-56.88750076293945,-13.425000190734863,10.668750762939453
1770950691050196500,4.981196533203125,-57.13125228881836,-12.412500381469727,10.575000762939453
1770950691060196600,4.991196533203125,-57.20625305175781,-11.287500381469727,11.006250381469727
1770950691070196500,5.001196533203125,-57.26250076293945,-10.143750190734863,10.96875
1770950691080196600,5.011196533203125,-57.056251525878906,-9.300000190734863,10.3125
1770950691090196500,5.021196533203125,-56.962501525878906,-8.34375,9.80625057220459
1770950691100196600,5.031196533203125,-56.64375305175781,-7.406250476837158,9.43125057220459
1770950691110196500,5.041196533203125,-56.28750228881836,-6.431250095367432,9.112500190734863
1770950691120196600,5.051196533203125,-56.04375076293945,-5.587500095367432,8.568750381469727
1770950691130196500,5.061196533203125,-55.85625076293945,-4.96875,8.137500762939453
1770950691140196600,5.071196533203125,-55.593753814697266,-4.5,7.275000095367432
1770950691150196500,5.081196533203125,-55.16250228881836,-4.200000286102295,6.712500095367432
1770950691160196600,5.091196533203125,-54.712501525878906,-3.9750001430511475,5.831250190734863
1770950691170196500,5.101196533203125,-54.150001525878906,-4.106250286102295,4.931250095367432
1770950691180196600,5.111196533203125,-53.718753814697266,-3.9937500953674316,4.068750381469727
1770950691190196500,5.121196533203125,-53.41875076293945,-4.3125,3.1125001907348633
1770950691200196600,5.131196533203125,-53.23125076293945,-4.612500190734863,2.34375
1770950691210196500,5.141196533203125,-52.837501525878906,-5.0625,1.5937501192092896
1770950691220196600,5.151196533203125,-52.48125076293945,-5.512500286102295,1.125
1770950691230196500,5.161196533203125,-52.368751525878906,-6.093750476837158,0.7312500476837158
1770950691240196600,5.171196533203125,-52.031253814697266,-6.881250381469727,0.3375000059604645
1770950691250196500,5.181196533203125,-51.656253814697266,-7.800000190734863,0.05625000223517418
1770950691260196600,5.191196533203125,-51.60000228881836,-8.831250190734863,-0.13125000894069672
1770950691270196500,5.201196533203125,-51.375003814697266,-9.393750190734863,-0.03750000149011612
1770950691280196600,5.211196533203125,-51.056251525878906,-10.125,0.15000000596046448
1770950691290196500,5.221196533203125,-51.281253814697266,-10.575000762939453,0.9375000596046448
1770950691300196600,5.231196533203125,-51.22500228881836,-11.456250190734863,1.7437500953674316
1770950691310196500,5.241196533203125,-51.01875305175781,-11.943750381469727,2.625
1770950691320196600,5.251196533203125,-51.16875076293945,-12.262500762939453,3.8625001907348633
1770950691330196500,5.261196533203125,-51.468753814697266,-12.543750762939453,5.231250286102295
1770950691340196600,5.271196533203125,-51.78750228881836,-12.90000057220459,6.637500286102295
1770950691350196500,5.281196533203125,-52.087501525878906,-13.27500057220459,8.362500190734863
1770950691360196600,5.291196533203125,-52.06875228881836,-13.55625057220459,10.03125
1770950691370196500,5.301196533203125,-51.468753814697266,-14.287500381469727,11.100000381469727
1770950691380196600,5.311196533203125,-51.69375228881836,-14.606250762939453,12.15000057220459
1770950691390196500,5.321196533203125,-51.76875305175781,-15.168750762939453,13.200000762939453
1770950691400196600,5.331196533203125,-51.375003814697266,-16.05000114440918,13.55625057220459
1770950691410196500,5.341196533203125,-50.98125076293945,-16.668750762939453,13.612500190734863
1770950691420196600,5.351196533203125,-50.718753814697266,-17.606250762939453,13.612500190734863
1770950691430196500,5.361196533203125,-50.025001525878906,-18.95625114440918,12.843750953674316
1770950691440196600,5.371196533203125,-49.95000076293945,-19.912500381469727,12.05625057220459
1770950691450196500,5.381196533203125,-49.931251525878906,-20.681251525878906,11.568750381469727
1770950691460196600,5.391196533203125,-49.556251525878906,-21.431251525878906,10.912500381469727
1770950691470196500,5.401196533203125,-49.29375076293945,-22.05000114440918,10.200000762939453
1770950691480196600,5.411196533203125,-49.66875076293945,-22.181251525878906,10.143750190734863
1770950691490196500,5.421196533203125,-50.025001525878906,-22.23750114440918,10.350000381469727
1770950691500196600,5.431196533203125,-49.98750305175781,-22.200000762939453,10.46250057220459
1770950691510196500,5.441196533203125,-50.400001525878906,-21.993751525878906,11.137500762939453
1770950691520196600,5.451196533203125,-50.437503814697266,-22.462501525878906,11.231250762939453
1770950691530196500,5.461196533203125,-50.08125305175781,-22.837501525878906,11.100000381469727
1770950691540196600,5.471196533203125,-49.44375228881836,-23.662500381469727,10.65000057220459
1770950691550196500,5.481196533203125,-48.76875305175781,-24.656251907348633,10.3125
1770950691560196600,5.491196533203125,-47.60625076293945,-25.875001907348633,10.012500762939453
1770950691570196500,5.501196533203125,-46.42500305175781,-27.337501525878906,9.168750762939453
1770950691580196600,5.511196533203125,-44.83125305175781,-28.98750114440918,8.381250381469727
1770950691590196500,5.521196533203125,-43.125,-30.843751907348633,7.331250190734863
1770950691600196600,5.531196533203125,-41.306251525878906,-32.625,7.031250476837158
1770950691610196500,5.541196533203125,-39.806251525878906,-34.10625076293945,6.956250190734863
1770950691620196600,5.551196533203125,-38.400001525878906,-35.45625305175781,7.575000286102295
1770950691630196500,5.561196533203125,-36.618751525878906,-36.69375228881836,8.25
1770950691640196600,5.571196533203125,-35.13750076293945,-37.78125,8.831250190734863
1770950691650196500,5.581196533203125,-33.5625,-38.73750305175781,9.61875057220459
1770950691660196600,5.591196533203125,-32.64375305175781,-39.26250076293945,10.706250190734863
1770950691670196500,5.601196533203125,-31.51875114440918,-39.73125076293945,11.625
1770950691680196600,5.611196533203125,-30.356250762939453,-39.75,12.375000953674316
1770950691690196500,5.621196533203125,-29.325000762939453,-40.01250076293945,12.975000381469727
1770950691700196600,5.631196533203125,-28.312501907348633,-39.84375,12.956250190734863
1770950691710196500,5.641196533203125,-27.58125114440918,-39.993751525878906,12.61875057220459
1770950691720196600,5.651196533203125,-26.437501907348633,-39.91875076293945,12.225000381469727
1770950691730196500,5.661196533203125,-25.462501525878906,-40.21875,11.40000057220459
1770950691740196600,5.671196533203125,-24.093751907348633,-40.78125,10.3125
1770950691750196500,5.681196533203125,-22.837501525878906,-41.118751525878906,9.262500762939453
1770950691760196600,5.691196533203125,-22.21875,-41.41875076293945,8.287500381469727
1770950691770196500,5.701196533203125,-21.337501525878906,-41.75625228881836,6.975000381469727
1770950691780196600,5.711196533203125,-20.26875114440918,-41.98125076293945,6.037500381469727
1770950691790196500,5.721196533203125,-19.350000381469727,-42.20625305175781,5.212500095367432
1770950691800196600,5.731196533203125,-18.46875,-42.65625,3.937500238418579
1770950691810196500,5.741196533203125,-17.306251525878906,-42.73125076293945,3.562500238418579
1770950691820196600,5.751196533203125,-16.668750762939453,-42.48750305175781,3.2250001430511475
1770950691830196500,5.761196533203125,-16.33125114440918,-42.35625076293945,2.9437501430511475
1770950691840196600,5.771196533203125,-15.33750057220459,-42.60000228881836,2.4375
1770950691850196500,5.781196533203125,-14.325000762939453,-42.5625,2.0812501907348633
1770950691860196600,5.791196533203125,-13.668750762939453,-42.73125076293945,1.8750001192092896
1770950691870196500,5.801196533203125,-13.237500190734863,-42.806251525878906,1.5187500715255737
1770950691880196600,5.811196533203125,-13.106250762939453,-42.91875076293945,1.6875001192092896
1770950691890196500,5.821196533203125,-13.46250057220459,-42.88125228881836,1.631250023841858
1770950691900196600,5.831196533203125,-13.406250953674316,-43.14375305175781,1.3875000476837158
1770950691910196500,5.841196533203125,-13.425000190734863,-43.29375076293945,1.2937500476837158
1770950691920196600,5.851196533203125,-13.74375057220459,-42.9375,1.537500023841858
1770950691930196500,5.861196533203125,-14.437500953674316,-42.993751525878906,1.725000023841858
1770950691940196600,5.871196533203125,-15.168750762939453,-43.29375076293945,1.7625000476837158
1770950691950196500,5.881196533203125,-15.393750190734863,-43.181251525878906,2.137500047683716
1770950691960196600,5.891196533203125,-15.375000953674316,-42.95625305175781,2.34375
1770950691970196500,5.901196533203125,-14.86875057220459,-43.125,2.1937501430511475
1770950691980196600,5.911196533203125,-14.700000762939453,-42.95625305175781,2.0250000953674316
1770950691990196500,5.921196533203125,-14.02500057220459,-42.86250305175781,1.537500023841858
1770950692000196600,5.931196533203125,-13.237500190734863,-43.03125,0.581250011920929
1770950692010196500,5.941196533203125,-12.112500190734863,-42.76875305175781,0.4687500298023224
1770950692020196600,5.951196533203125,-11.137500762939453,-42.48750305175781,-0.09375
1770950692030196500,5.961196533203125,-10.46250057220459,-42.20625305175781,-0.13125000894069672
1770950692040196600,5.971196533203125,-9.918750762939453,-42.150001525878906,-0.4312500059604645
1770950692050196500,5.981196533203125,-9.65625,-41.83125305175781,-0.30000001192092896
1770950692060196600,5.991196533203125,-9.356250762939453,-41.41875076293945,0.26250001788139343
1770950692070196500,6.001196533203125,-9.15000057220459,-41.00625228881836,0.8250000476837158
1770950692080196600,6.011196533203125,-9.412500381469727,-40.42500305175781,1.6687500476837158
1770950692090196500,6.021196533203125,-9.825000762939453,-40.06875228881836,1.8562500476837158
1770950692100196600,6.031196533203125,-9.956250190734863,-39.525001525878906,2.34375
1770950692110196500,6.041196533203125,-9.84375,-39.22500228881836,2.325000047683716
1770950692120196600,6.051196533203125,-9.90000057220459,-38.681251525878906,2.4375
1770950692130196500,6.061196533203125,-10.08750057220459,-37.95000076293945,2.700000047683716
1770950692140196600,6.071196533203125,-10.331250190734863,-37.743751525878906,2.700000047683716
1770950692150196500,6.081196533203125,-10.5,-37.368751525878906,3.3187501430511475
1770950692160196600,6.091196533203125,-10.40625,-37.16250228881836,4.012500286102295
1770950692170196500,6.101196533203125,-10.350000381469727,-36.97500228881836,4.856250286102295
1770950692180196600,6.111196533203125,-10.537500381469727,-36.712501525878906,5.53125
1770950692190196500,6.121196533203125,-10.575000762939453,-36.5625,6.468750476837158
1770950692200196600,6.131196533203125,-10.706250190734863,-36.5625,7.087500095367432
1770950692210196500,6.141196533203125,-10.443750381469727,-36.75,7.443750381469727
1770950692220196600,6.151196533203125,-10.293750762939453,-36.60000228881836,7.837500095367432
1770950692230196500,6.161196533203125,-10.78125,-36.58125305175781,7.912500381469727
1770950692240196600,6.171196533203125,-11.15625,-36.46875,7.687500476837158
1770950692250196500,6.181196533203125,-11.58750057220459,-36.31875228881836,7.518750190734863
1770950692260196600,6.191196533203125,-11.68125057220459,-36.13125228881836,7.575000286102295
1770950692270196500,6.201196533203125,-12.131250381469727,-35.962501525878906,7.256250381469727
1770950692280196600,6.211196533203125,-12.262500762939453,-35.71875,7.181250095367432
1770950692290196500,6.221196533203125,-12.581250190734863,-35.55000305175781,7.312500476837158
1770950692300196600,6.231196533203125,-12.731250762939453,-35.32500076293945,7.331250190734863
1770950692310196500,6.241196533203125,-12.43125057220459,-35.212501525878906,7.200000286102295
1770950692320196600,6.251196533203125,-12.15000057220459,-35.08125305175781,7.162500381469727
1770950692330196500,6.261196533203125,-12.018750190734863,-35.04375076293945,6.843750476837158
1770950692340196600,6.271196533203125,-12.093750953674316,-34.91250228881836,6.393750190734863
1770950692350196500,6.281196533203125,-12.037500381469727,-34.91250228881836,5.775000095367432
1770950692360196600,6.291196533203125,-12.206250190734863,-34.96875,5.287500381469727
1770950692370196500,6.301196533203125,-12.543750762939453,-34.78125,4.818750381469727
1770950692380196600,6.311196533203125,-12.506250381469727,-34.78125,4.387500286102295
1770950692390196500,6.321196533203125,-12.731250762939453,-34.6875,3.8812501430511475
1770950692400196600,6.331196533203125,-12.881250381469727,-34.650001525878906,3.2437500953674316
1770950692410196500,6.341196533203125,-12.975000381469727,-34.51875305175781,2.625
1770950692420196600,6.351196533203125,-12.90000057220459,-34.66875076293945,2.4562501907348633
1770950692430196500,6.361196533203125,-12.881250381469727,-34.42500305175781,2.71875
1770950692440196600,6.371196533203125,-13.068750381469727,-34.20000076293945,3.168750047683716
1770950692450196500,6.381196533203125,-12.768750190734863,-34.16250228881836,3.5062501430511475
1770950692460196600,6.391196533203125,-13.031250953674316,-34.23750305175781,3.750000238418579
1770950692470196500,6.401196533203125,-13.125000953674316,-34.05000305175781,4.21875
1770950692480196600,6.411196533203125,-13.08750057220459,-33.78750228881836,5.006250381469727
1770950692490196500,6.421196533203125,-12.693750381469727,-33.82500076293945,5.71875
1770950692500196600,6.431196533203125,-12.450000762939453,-33.54375076293945,6.150000095367432
1770950692510196500,6.441196533203125,-12.206250190734863,-33.54375076293945,6.131250381469727
1770950692520196600,6.451196533203125,-11.606250762939453,-33.63750076293945,5.90625
1770950692530196500,6.461196533203125,-11.512500762939453,-33.67500305175781,5.625
1770950692540196600,6.471196533203125,-11.0625,-33.46875,5.175000190734863
1770950692550196500,6.481196533203125,-10.518750190734863,-33.41250228881836,5.0625
1770950692560196600,6.491196533203125,-10.03125,-33.50625228881836,4.650000095367432
1770950692570196500,6.501196533203125,-9.768750190734863,-33.22500228881836,4.425000190734863
1770950692580196600,6.511196533203125,-9.09375,-33.09375,4.03125
1770950692590196500,6.521196533203125,-8.568750381469727,-33.20625305175781,3.7687501907348633
1770950692600196600,6.531196533203125,-7.668750286102295,-32.98125076293945,3.093750238418579
1770950692610196500,6.541196533203125,-6.787500381469727,-32.83125305175781,2.3625001907348633
1770950692620196600,6.551196533203125,-5.512500286102295,-32.625,2.0625
1770950692630196500,6.561196533203125,-4.575000286102295,-32.493751525878906,1.1437500715255737
1770950692640196600,6.571196533203125,-3.4312500953674316,-32.34375,0.24375000596046448
1770950692650196500,6.581196533203125,-2.0812501907348633,-31.950000762939453,-0.6375000476837158
1770950692660196600,6.591196533203125,-0.9000000357627869,-31.762500762939453,-1.4250000715255737
1770950692670196500,6.601196533203125,0.22500000894069672,-31.23750114440918,-2.34375
1770950692680196600,6.611196533203125,0.956250011920929,-30.656251907348633,-2.7562501430511475
1770950692690196500,6.621196533203125,1.9687501192092896,-30.056251525878906,-3.4125001430511475
1770950692700196600,6.631196533203125,2.5687501430511475,-29.756250381469727,-4.237500190734863
1770950692710196500,6.641196533203125,3.0187501907348633,-29.193750381469727,-4.78125
1770950692720196600,6.651196533203125,3.2062501907348633,-28.556251525878906,-5.193750381469727
1770950692730196500,6.661196533203125,3.075000047683716,-28.087501525878906,-5.625
1770950692740196600,6.671196533203125,2.887500047683716,-27.337501525878906,-6.037500381469727
1770950692750196500,6.681196533203125,2.71875,-26.64375114440918,-6.300000190734863
1770950692760196600,6.691196533203125,2.2687501907348633,-26.08125114440918,-6.750000476837158
1770950692770196500,6.701196533203125,2.0812501907348633,-25.443750381469727,-6.900000095367432
1770950692780196600,6.711196533203125,1.7812501192092896,-24.693750381469727,-7.368750095367432
1770950692790196500,6.721196533203125,1.8000000715255737,-24.11250114440918,-7.650000095367432
1770950692800196600,6.731196533203125,1.725000023841858,-23.381250381469727,-7.912500381469727
1770950692810196500,6.741196533203125,1.6500000953674316,-22.5,-8.287500381469727
1770950692820196600,6.751196533203125,1.350000023841858,-21.731250762939453,-8.981250762939453
1770950692830196500,6.761196533203125,1.3312500715255737,-21.131250381469727,-9.412500381469727
1770950692840196600,6.771196533203125,1.8000000715255737,-20.45625114440918,-9.99375057220459
1770950692850196500,6.781196533203125,2.0625,-19.931251525878906,-10.5
1770950692860196600,6.791196533203125,2.25,-19.21875,-10.612500190734863
1770950692870196500,6.801196533203125,2.7375001907348633,-18.412500381469727,-11.043750762939453
1770950692880196600,6.811196533203125,3.093750238418579,-17.868751525878906,-11.550000190734863
1770950692890196500,6.821196533203125,3.656250238418579,-17.587501525878906,-11.925000190734863
1770950692900196600,6.831196533203125,4.143750190734863,-17.306251525878906,-12.15000057220459
1770950692910196500,6.841196533203125,4.21875,-16.631250381469727,-12.468750953674316
1770950692920196600,6.851196533203125,4.087500095367432,-16.42500114440918,-12.412500381469727
1770950692930196500,6.861196533203125,4.162500381469727,-16.068750381469727,-12.61875057220459
1770950692940196600,6.871196533203125,4.518750190734863,-15.731250762939453,-12.975000381469727
1770950692950196500,6.881196533203125,4.612500190734863,-15.675000190734863,-12.975000381469727
1770950692960196600,6.891196533203125,4.6875,-15.487500190734863,-13.106250762939453
1770950692970196500,6.901196533203125,4.706250190734863,-15.262500762939453,-13.18125057220459
1770950692980196600,6.911196533203125,4.818750381469727,-15.168750762939453,-13.012500762939453
1770950692990196500,6.921196533203125,5.362500190734863,-15.43125057220459,-12.862500190734863
1770950693000196600,6.931196533203125,5.887500286102295,-15.262500762939453,-13.031250953674316
1770950693010196500,6.941196533203125,5.8125,-15.206250190734863,-13.050000190734863
1770950693020196600,6.951196533203125,5.850000381469727,-15.487500190734863,-13.012500762939453
1770950693030196500,6.961196533203125,6.056250095367432,-15.750000953674316,-13.406250953674316
1770950693040196600,6.971196533203125,6.093750476837158,-15.843750953674316,-13.537500381469727
1770950693050196500,6.981196533203125,5.681250095367432,-15.918750762939453,-13.443750381469727
1770950693060196600,6.991196533203125,5.587500095367432,-15.956250190734863,-13.706250190734863
1770950693070196500,7.001196533203125,5.043750286102295,-15.768750190734863,-13.950000762939453
1770950693080196600,7.011196533203125,4.725000381469727,-15.543750762939453,-14.062500953674316
1770950693090196500,7.021196533203125,4.875,-15.300000190734863,-14.250000953674316
1770950693100196600,7.031196533203125,4.443750381469727,-14.77500057220459,-14.156250953674316
1770950693110196500,7.041196533203125,3.9000000953674316,-14.062500953674316,-14.043750762939453
1770950693120196600,7.051196533203125,3.4125001430511475,-13.668750762939453,-13.93125057220459
1770950693130196500,7.061196533203125,3.543750047683716,-13.237500190734863,-14.100000381469727
1770950693140196600,7.071196533203125,3.075000047683716,-12.937500953674316,-14.02500057220459
1770950693150196500,7.081196533203125,2.9625000953674316,-12.600000381469727,-14.02500057220459
1770950693160196600,7.091196533203125,2.5500001907348633,-12.33750057220459,-14.043750762939453
1770950693170196500,7.101196533203125,1.818750023841858,-12.262500762939453,-14.156250953674316
1770950693180196600,7.111196533203125,1.6500000953674316,-12.112500190734863,-14.325000762939453
1770950693190196500,7.121196533203125,1.2937500476837158,-12.225000381469727,-14.568750381469727
1770950693200196600,7.131196533203125,1.162500023841858,-12.112500190734863,-14.625000953674316
1770950693210196500,7.141196533203125,0.862500011920929,-12.225000381469727,-14.737500190734863
1770950693220196600,7.151196533203125,1.1062500476837158,-12.225000381469727,-14.96250057220459
1770950693230196500,7.161196533203125,0.9937500357627869,-12.168750762939453,-15.05625057220459
1770950693240196600,7.171196533203125,1.2750000953674316,-12.356250762939453,-15.187500953674316
1770950693250196500,7.181196533203125,1.7062500715255737,-12.300000190734863,-15.187500953674316
1770950693260196600,7.191196533203125,1.8750001192092896,-12.412500381469727,-15.206250190734863
1770950693270196500,7.201196533203125,2.2125000953674316,-12.43125057220459,-15.225000381469727
1770950693280196600,7.211196533203125,2.3812501430511475,-12.543750762939453,-15.15000057220459
1770950693290196500,7.221196533203125,2.418750047683716,-12.543750762939453,-15.206250190734863
1770950693300196600,7.231196533203125,2.2687501907348633,-12.393750190734863,-15.05625057220459
1770950693310196500,7.241196533203125,2.4375,-12.468750953674316,-15.168750762939453
1770950693320196600,7.251196533203125,2.3625001907348633,-12.412500381469727,-15.225000381469727
1770950693330196500,7.261196533203125,2.1187500953674316,-12.506250381469727,-15.262500762939453
1770950693340196600,7.271196533203125,1.7812501192092896,-12.375000953674316,-15.262500762939453
1770950693350196500,7.281196533203125,1.4812500476837158,-12.225000381469727,-15.206250190734863
1770950693360196600,7.291196533203125,1.2375000715255737,-11.981250762939453,-15.356250762939453
1770950693370196500,7.301196533203125,0.768750011920929,-11.831250190734863,-15.318750381469727
1770950693380196600,7.311196533203125,0.581250011920929,-11.68125057220459,-15.581250190734863
1770950693400196600,7.331196533203125,0.4125000238418579,-11.287500381469727,-15.937500953674316
1770950693410196500,7.341196533203125,0.4312500059604645,-11.006250381469727,-16.368751525878906
1770950693420196600,7.351196533203125,0.375,-10.912500381469727,-16.481250762939453
1770950693430196500,7.361196533203125,0.13125000894069672,-10.83750057220459,-16.40625
1770950693440196600,7.371196533203125,-0.07500000298023224,-10.856250762939453,-16.443750381469727
1770950693450196500,7.381196533203125,0.3187500238418579,-10.800000190734863,-16.668750762939453
1770950693460196600,7.391196533203125,0,-10.65000057220459,-16.40625
1770950693470196500,7.401196533203125,-0.375,-10.425000190734863,-16.14375114440918
1770950693480196600,7.411196533203125,-0.8812500238418579,-10.256250381469727,-15.506250381469727
1770950693490196500,7.421196533203125,-1.2750000953674316,-10.21875,-15.15000057220459
1770950693500196600,7.431196533203125,-1.6875001192092896,-9.975000381469727,-15.093750953674316
1770950693510196500,7.441196533203125,-1.7625000476837158,-9.862500190734863,-15.000000953674316
1770950693520196600,7.451196533203125,-1.9500000476837158,-9.71250057220459,-14.906250953674316
1770950693530196500,7.461196533203125,-2.3062500953674316,-9.5625,-14.737500190734863
1770950693540196600,7.471196533203125,-1.9687501192092896,-9.543750762939453,-15.206250190734863
1770950693550196500,7.481196533203125,-1.7062500715255737,-9.43125057220459,-15.693750381469727
1770950693560196600,7.491196533203125,-1.2937500476837158,-9.393750190734863,-16.03125
1770950693570196500,7.501196533203125,-1.3125,-9.112500190734863,-16.21875
1770950693580196600,7.511196533203125,-1.1812500953674316,-8.96250057220459,-16.200000762939453
1770950693590196500,7.521196533203125,-1.3125,-9,-16.462501525878906
1770950693600196600,7.531196533203125,-1.40625,-9,-16.631250381469727
1770950693610196500,7.541196533203125,-1.5187500715255737,-8.71875,-16.51875114440918
1770950693620196600,7.551196533203125,-1.818750023841858,-8.77500057220459,-16.443750381469727
1770950693630196500,7.561196533203125,-2.606250047683716,-8.86875057220459,-16.125
1770950693640196600,7.571196533203125,-3.0375001430511475,-8.981250762939453,-16.23750114440918
1770950693650196500,7.581196533203125,-3.3000001907348633,-8.96250057220459,-16.03125
1770950693660196600,7.591196533203125,-3.4125001430511475,-9.1875,-16.23750114440918
1770950693670196500,7.601196533203125,-3.6937501430511475,-8.981250762939453,-16.106250762939453
1770950693680196600,7.611196533203125,-3.7125000953674316,-8.86875057220459,-16.012500762939453
1770950693690196500,7.621196533203125,-3.9750001430511475,-9.018750190734863,-16.14375114440918
1770950693700196600,7.631196533203125,-4.256250381469727,-8.737500190734863,-15.768750190734863
1770950693710196500,7.641196533203125,-4.368750095367432,-8.662500381469727,-15.693750381469727
1770950693720196600,7.651196533203125,-4.631250381469727,-8.71875,-15.675000190734863
1770950693730196500,7.661196533203125,-4.706250190734863,-8.550000190734863,-15.393750190734863
1770950693740196600,7.671196533203125,-5.118750095367432,-8.25,-15.093750953674316
1770950693750196500,7.681196533203125,-5.34375,-7.950000286102295,-15.037500381469727
1770950693760196600,7.691196533203125,-5.306250095367432,-7.856250286102295,-14.887500762939453
1770950693770196500,7.701196533203125,-5.456250190734863,-7.518750190734863,-14.887500762939453
1770950693780196600,7.711196533203125,-5.587500095367432,-7.368750095367432,-14.943750381469727
1770950693790196500,7.721196533203125,-5.475000381469727,-7.143750190734863,-15.168750762939453
1770950693800196600,7.731196533203125,-5.662500381469727,-6.656250476837158,-15.112500190734863
1770950693810196500,7.741196533203125,-5.775000095367432,-6.712500095367432,-15.43125057220459
1770950693820196600,7.751196533203125,-5.400000095367432,-6.693750381469727,-15.61875057220459
1770950693830196500,7.761196533203125,-5.400000095367432,-6.768750190734863,-15.862500190734863
1770950693840196600,7.771196533203125,-5.71875,-6.450000286102295,-16.068750381469727
1770950693850196500,7.781196533203125,-5.8125,-6.431250095367432,-16.200000762939453
1770950693860196600,7.791196533203125,-5.925000190734863,-6.375000476837158,-16.293750762939453
1770950693870196500,7.801196533203125,-5.90625,-6.225000381469727,-16.443750381469727
1770950693880196600,7.811196533203125,-6,-6.093750476837158,-16.387500762939453
1770950693890196500,7.821196533203125,-6.168750286102295,-5.925000190734863,-16.23750114440918
1770950693900196600,7.831196533203125,-6.412500381469727,-5.925000190734863,-16.125
1770950693910196500,7.841196533203125,-6.375000476837158,-5.831250190734863,-16.03125
1770950693920196600,7.851196533203125,-6.356250286102295,-5.775000095367432,-15.862500190734863
1770950693930196500,7.861196533203125,-6.187500476837158,-5.868750095367432,-15.862500190734863
1770950693940196600,7.871196533203125,-6.037500381469727,-5.8125,-15.656250953674316
1770950693950196500,7.881196533203125,-6.243750095367432,-5.868750095367432,-15.43125057220459
1770950693960196600,7.891196533203125,-5.962500095367432,-6.056250095367432,-15.581250190734863
1770950693970196500,7.901196533203125,-5.850000381469727,-6.262500286102295,-15.956250190734863
1770950693980196600,7.911196533203125,-5.700000286102295,-6.262500286102295,-16.200000762939453
1770950693990196500,7.921196533203125,-5.606250286102295,-6.450000286102295,-16.275001525878906
1770950694000196600,7.931196533203125,-5.381250381469727,-6.656250476837158,-16.537500381469727
1770950694010196500,7.941196533203125,-5.025000095367432,-6.618750095367432,-16.743751525878906
1770950694020196600,7.951196533203125,-4.818750381469727,-6.975000381469727,-16.931251525878906
1770950694030196500,7.961196533203125,-4.012500286102295,-7.050000190734863,-17.025001525878906
1770950694040196600,7.971196533203125,-3.6187500953674316,-7.331250190734863,-17.193750381469727
1770950694050196500,7.981196533203125,-2.9437501430511475,-7.593750476837158,-17.08125114440918
1770950694060196600,7.991196533203125,-2.4750001430511475,-7.743750095367432,-17.025001525878906
1770950694070196500,8.001196533203125,-1.5937501192092896,-7.631250381469727,-16.950000762939453
1770950694080196600,8.011196533203124,-0.9750000238418579,-7.706250190734863,-16.837501525878906
1770950694090196500,8.021196533203126,-0.6000000238418579,-7.893750190734863,-16.80000114440918
1770950694100196600,8.031196533203126,-0.30000001192092896,-7.631250381469727,-16.856250762939453
1770950694110196500,8.041196533203125,-0.48750001192092896,-7.556250095367432,-16.80000114440918
1770950694120196600,8.051196533203125,-0.7125000357627869,-7.218750476837158,-16.631250381469727
1770950694130196500,8.061196533203125,-0.9375000596046448,-6.881250381469727,-16.481250762939453
1770950694140196600,8.071196533203125,-1.1812500953674316,-6.787500381469727,-16.78125
1770950694150196500,8.081196533203125,-1.6500000953674316,-6.806250095367432,-16.856250762939453
1770950694160196600,8.091196533203124,-1.8000000715255737,-6.900000095367432,-16.950000762939453
1770950694170196500,8.101196533203124,-1.7437500953674316,-6.731250286102295,-17.100000381469727
1770950694180196600,8.111196533203126,-1.6875001192092896,-6.843750476837158,-17.287500381469727
1770950694190196500,8.121196533203126,-1.5750000476837158,-6.881250381469727,-17.381250381469727
1770950694200196600,8.131196533203125,-1.537500023841858,-7.012500286102295,-17.53125
1770950694210196500,8.141196533203125,-1.5750000476837158,-6.806250095367432,-17.700000762939453
1770950694220196600,8.151196533203125,-1.5750000476837158,-6.918750286102295,-17.587501525878906
1770950694230196500,8.161196533203125,-1.9875000715255737,-6.918750286102295,-17.64375114440918
1770950694240196600,8.171196533203124,-2.6437501907348633,-6.693750381469727,-17.493751525878906
1770950694250196500,8.181196533203124,-3.4875001907348633,-6.318750381469727,-17.26875114440918
1770950694260196600,8.191196533203126,-4.106250286102295,-6.075000286102295,-17.043750762939453
1770950694270196500,8.201196533203126,-4.875,-5.943750381469727,-17.15625
1770950694280196600,8.211196533203125,-5.418750286102295,-5.756250381469727,-16.912500381469727
1770950694290196500,8.221196533203125,-5.737500190734863,-5.831250190734863,-16.70625114440918
1770950694300196600,8.231196533203125,-6.093750476837158,-5.587500095367432,-16.481250762939453
1770950694310196500,8.241196533203125,-6.131250381469727,-5.418750286102295,-16.275001525878906
1770950694320196600,8.251196533203125,-5.775000095367432,-5.287500381469727,-16.443750381469727
1770950694330196500,8.261196533203124,-5.550000190734863,-5.512500286102295,-16.462501525878906
1770950694340196600,8.271196533203126,-5.400000095367432,-5.53125,-16.40625
1770950694350196500,8.281196533203126,-5.025000095367432,-5.8125,-16.42500114440918
1770950694360196600,8.291196533203125,-4.893750190734863,-6,-16.51875114440918
1770950694370196500,8.301196533203125,-5.043750286102295,-5.868750095367432,-16.59375
1770950694380196600,8.311196533203125,-5.306250095367432,-5.925000190734863,-16.40625
1770950694390196500,8.321196533203125,-5.512500286102295,-6.093750476837158,-16.631250381469727
1770950694400196600,8.331196533203125,-6.037500381469727,-6.037500381469727,-16.743751525878906
1770950694410196500,8.341196533203124,-6.487500190734863,-6.168750286102295,-16.856250762939453
1770950694420196600,8.351196533203124,-6.600000381469727,-6.318750381469727,-17.118751525878906
1770950694430196500,8.361196533203126,-6.806250095367432,-6.243750095367432,-17.08125114440918
1770950694440196600,8.371196533203126,-6.900000095367432,-6.168750286102295,-16.856250762939453
1770950694450196500,8.381196533203125,-6.918750286102295,-6.393750190734863,-16.80000114440918
1770950694460196600,8.391196533203125,-6.712500095367432,-6.412500381469727,-16.96875
1770950694470196500,8.401196533203125,-6.600000381469727,-6.450000286102295,-16.70625114440918
1770950694480196600,8.411196533203125,-6.712500095367432,-6.731250286102295,-16.3125
1770950694490196500,8.421196533203124,-6.468750476837158,-6.918750286102295,-16.012500762939453
1770950694500196600,8.431196533203124,-6.975000381469727,-7.125000476837158,-15.600000381469727
1770950694510196500,8.441196533203126,-7.425000190734863,-7.068750381469727,-15.112500190734863
1770950694520196600,8.451196533203126,-7.818750381469727,-7.143750190734863,-14.737500190734863
1770950694530196500,8.461196533203125,-8.268750190734863,-7.087500095367432,-14.268750190734863
1770950694540196600,8.471196533203125,-9,-7.125000476837158,-13.93125057220459
1770950694550196500,8.481196533203125,-9.5625,-7.200000286102295,-13.668750762939453
1770950694560196600,8.491196533203125,-9.75,-7.218750476837158,-13.481250762939453
1770950694570196500,8.501196533203125,-10.237500190734863,-7.237500190734863,-13.143750190734863
1770950694580196600,8.511196533203124,-10.46250057220459,-7.331250190734863,-12.881250381469727
1770950694590196500,8.521196533203126,-10.762500762939453,-7.781250476837158,-12.600000381469727
1770950694600196600,8.531196533203126,-10.800000190734863,-8.40000057220459,-12.637500762939453
1770950694610196500,8.541196533203125,-10.59375,-9,-12.768750190734863
1770950694620196600,8.551196533203125,-10.162500381469727,-9.61875057220459,-12.787500381469727
1770950694630196500,8.561196533203125,-10.200000762939453,-9.99375057220459,-12.581250190734863
1770950694640196600,8.571196533203125,-10.106250762939453,-10.631250381469727,-12.600000381469727
1770950694650196500,8.581196533203125,-10.200000762939453,-11.175000190734863,-12.543750762939453
1770950694660196600,8.591196533203124,-9.99375057220459,-11.49375057220459,-12.506250381469727
1770950694670196500,8.601196533203124,-9.693750381469727,-11.58750057220459,-12.52500057220459
1770950694680196600,8.611196533203126,-9.487500190734863,-11.49375057220459,-12.262500762939453
1770950694690196500,8.621196533203126,-9.412500381469727,-11.325000762939453,-12.262500762939453
1770950694700196600,8.631196533203125,-9.61875057220459,-11.34375,-12.24375057220459
1770950694710196500,8.641196533203125,-9.412500381469727,-11.287500381469727,-12.43125057220459
1770950694720196600,8.651196533203125,-9.1875,-10.93125057220459,-12.33750057220459
1770950694730196500,8.661196533203125,-8.887500762939453,-10.6875,-12.375000953674316
1770950694740196600,8.671196533203124,-8.925000190734863,-10.725000381469727,-12.43125057220459
1770950694750196500,8.681196533203124,-8.662500381469727,-10.74375057220459,-12.600000381469727
1770950694760196600,8.691196533203126,-8.700000762939453,-10.631250381469727,-12.90000057220459
1770950694770196500,8.701196533203126,-8.90625,-10.706250190734863,-12.750000953674316
1770950694780196600,8.711196533203125,-8.700000762939453,-10.3125,-12.768750190734863
1770950694790196500,8.721196533203125,-8.700000762939453,-10.350000381469727,-12.825000762939453
1770950694800196600,8.731196533203125,-8.793750762939453,-10.518750190734863,-12.975000381469727
1770950694810196500,8.741196533203125,-8.925000190734863,-10.387500762939453,-12.862500190734863
1770950694820196600,8.751196533203125,-8.887500762939453,-10.200000762939453,-12.975000381469727
1770950694830196500,8.761196533203124,-9.018750190734863,-10.106250762939453,-12.80625057220459
1770950694840196600,8.771196533203126,-9.018750190734863,-10.237500190734863,-12.862500190734863
1770950694860196600,8.791196533203125,-9.131250381469727,-10.425000190734863,-12.71250057220459
1770950694870196500,8.801196533203125,-8.96250057220459,-10.425000190734863,-12.506250381469727
1770950694880196600,8.811196533203125,-8.850000381469727,-10.46250057220459,-12.262500762939453
1770950694890196500,8.821196533203125,-8.606250762939453,-10.78125,-12.487500190734863
1770950694900196600,8.831196533203125,-8.325000762939453,-11.02500057220459,-12.262500762939453
1770950694910196500,8.841196533203124,-8.006250381469727,-11.362500190734863,-12.24375057220459
1770950694920196600,8.851196533203124,-7.875000476837158,-11.362500190734863,-12.300000190734863
1770950694930196500,8.861196533203126,-7.556250095367432,-11.700000762939453,-12.225000381469727
1770950694940196600,8.871196533203126,-6.900000095367432,-11.981250762939453,-12.468750953674316
1770950694950196500,8.881196533203125,-6.431250095367432,-12.300000190734863,-12.600000381469727
1770950694960196600,8.891196533203125,-6.187500476837158,-12.675000190734863,-12.768750190734863
1770950694970196500,8.901196533203125,-5.625,-12.881250381469727,-12.43125057220459
1770950694980196600,8.911196533203125,-5.212500095367432,-12.975000381469727,-12.543750762939453
1770950694990196500,8.921196533203124,-4.987500190734863,-13.200000762939453,-12.825000762939453
1770950695000196600,8.931196533203124,-4.631250381469727,-13.350000381469727,-12.637500762939453
1770950695010196500,8.941196533203126,-4.425000190734863,-13.518750190734863,-12.843750953674316
1770950695020196600,8.951196533203126,-4.331250190734863,-13.518750190734863,-12.750000953674316
1770950695030196500,8.961196533203125,-4.425000190734863,-13.256250381469727,-12.768750190734863
1770950695040196600,8.971196533203125,-4.387500286102295,-13.18125057220459,-12.975000381469727
1770950695050196500,8.981196533203125,-4.387500286102295,-13.012500762939453,-13.18125057220459
1770950695060196600,8.991196533203125,-4.237500190734863,-13.162500381469727,-13.200000762939453
1770950695070196500,9.001196533203125,-4.21875,-12.956250190734863,-13.031250953674316
1770950695080196600,9.011196533203124,-4.125,-13.050000190734863,-13.050000190734863
1770950695090196500,9.021196533203126,-4.331250190734863,-12.881250381469727,-12.956250190734863
1770950695100196600,9.031196533203126,-4.668750286102295,-12.956250190734863,-12.600000381469727
1770950695110196500,9.041196533203125,-4.743750095367432,-13.18125057220459,-12.562500953674316
1770950695120196600,9.051196533203125,-5.0625,-13.425000190734863,-12.300000190734863
1770950695130196500,9.061196533203125,-5.568750381469727,-13.500000953674316,-12.037500381469727
1770950695140196600,9.071196533203125,-6.075000286102295,-13.687500953674316,-11.8125
1770950695150196500,9.081196533203125,-6.206250190734863,-13.762500762939453,-11.53125
1770950695160196600,9.091196533203124,-6.225000381469727,-13.93125057220459,-11.287500381469727
1770950695170196500,9.101196533203124,-6.262500286102295,-13.875000953674316,-10.74375057220459
1770950695180196600,9.111196533203126,-6.131250381469727,-13.987500190734863,-10.93125057220459
1770950695190196500,9.121196533203126,-6.187500476837158,-13.987500190734863,-10.668750762939453
1770950695200196600,9.131196533203125,-5.8125,-13.818750381469727,-10.6875
1770950695210196500,9.141196533203125,-5.587500095367432,-13.93125057220459,-10.950000762939453
1770950695220196600,9.151196533203125,-5.100000381469727,-13.93125057220459,-11.49375057220459
1770950695230196500,9.161196533203125,-4.818750381469727,-14.156250953674316,-12.206250190734863
1770950695240196600,9.171196533203124,-4.575000286102295,-14.043750762939453,-12.862500190734863
1770950695250196500,9.181196533203124,-4.125,-14.40000057220459,-13.74375057220459
1770950695260196600,9.191196533203126,-3.9000000953674316,-14.362500190734863,-14.437500953674316
1770950695270196500,9.201196533203126,-3.5250000953674316,-14.512500762939453,-15.693750381469727
1770950695280196600,9.211196533203125,-3.375000238418579,-14.531250953674316,-16.931251525878906
1770950695290196500,9.221196533203125,-2.8125,-14.700000762939453,-18.95625114440918
1770950695300196600,9.231196533203125,-2.793750047683716,-14.77500057220459,-20.231250762939453
1770950695310196500,9.241196533203125,-2.5875000953674316,-14.718750953674316,-21.150001525878906
1770950695320196600,9.251196533203125,-2.8500001430511475,-14.550000190734863,-20.962501525878906
1770950695330196500,9.261196533203124,-3.093750238418579,-14.362500190734863,-20.606250762939453
1770950695340196600,9.271196533203126,-3.075000047683716,-14.756250381469727,-20.212501525878906
1770950695350196500,9.281196533203126,-3.543750047683716,-14.943750381469727,-19.40625
1770950695360196600,9.291196533203125,-3.825000047683716,-15.093750953674316,-18.28125
1770950695370196500,9.301196533203125,-4.237500190734863,-15.206250190734863,-16.350000381469727
1770950695380196600,9.311196533203125,-4.818750381469727,-15.206250190734863,-14.831250190734863
1770950695390196500,9.321196533203125,-5.006250381469727,-15.262500762939453,-13.481250762939453
1770950695400196600,9.331196533203125,-5.118750095367432,-15.43125057220459,-13.068750381469727
1770950695410196500,9.341196533203124,-5.4375,-15.33750057220459,-12.393750190734863
1770950695420196600,9.351196533203124,-5.8125,-15.225000381469727,-11.737500190734863
1770950695430196500,9.361196533203126,-5.8125,-15.000000953674316,-11.043750762939453
1770950695440196600,9.371196533203126,-6.131250381469727,-14.850000381469727,-10.125
1770950695450196500,9.381196533203125,-6.600000381469727,-14.906250953674316,-9.543750762939453
1770950695460196600,9.391196533203125,-6.712500095367432,-14.906250953674316,-8.793750762939453
1770950695470196500,9.401196533203125,-7.181250095367432,-14.943750381469727,-8.175000190734863
1770950695480196600,9.411196533203125,-7.350000381469727,-15.33750057220459,-7.593750476837158
1770950695490196500,9.421196533203124,-6.937500476837158,-15.975000381469727,-7.725000381469727
1770950695500196600,9.431196533203124,-6.675000190734863,-16.3125,-7.556250095367432
1770950695510196500,9.441196533203126,-6.056250095367432,-16.631250381469727,-7.275000095367432
1770950695520196600,9.451196533203126,-5.400000095367432,-17.100000381469727,-7.462500095367432
1770950695530196500,9.461196533203125,-4.631250381469727,-16.931251525878906,-7.275000095367432
1770950695540196600,9.471196533203125,-3.8062500953674316,-17.15625,-7.368750095367432
1770950695550196500,9.481196533203125,-3.2062501907348633,-17.25,-7.275000095367432
1770950695560196600,9.491196533203125,-2.606250047683716,-17.231250762939453,-7.518750190734863
1770950695570196500,9.501196533203125,-2.3812501430511475,-16.912500381469727,-7.406250476837158
1770950695580196600,9.511196533203124,-1.6500000953674316,-16.631250381469727,-7.387500286102295
1770950695590196500,9.521196533203126,-1.3687500953674316,-16.537500381469727,-7.518750190734863
1770950695600196600,9.531196533203126,-0.956250011920929,-16.23750114440918,-7.443750381469727
1770950695610196500,9.541196533203125,-0.581250011920929,-16.293750762939453,-7.856250286102295
1770950695620196600,9.551196533203125,-0.24375000596046448,-16.125,-8.30625057220459
1770950695630196500,9.561196533203125,-0.11250000447034836,-16.087501525878906,-8.793750762939453
1770950695640196600,9.571196533203125,0.3375000059604645,-16.068750381469727,-9.206250190734863
1770950695650196500,9.581196533203125,0.675000011920929,-16.05000114440918,-9.52500057220459
1770950695660196600,9.591196533203124,0.48750001192092896,-15.956250190734863,-10.256250381469727
1770950695670196500,9.601196533203124,0.6937500238418579,-15.881250381469727,-11.100000381469727
1770950695680196600,9.611196533203126,0.5062500238418579,-15.731250762939453,-11.700000762939453
1770950695690196500,9.621196533203126,0.45000001788139343,-15.768750190734863,-12.225000381469727
1770950695700196600,9.631196533203125,0.3375000059604645,-15.787500381469727,-12.600000381469727
1770950695710196500,9.641196533203125,0.45000001788139343,-15.693750381469727,-13.350000381469727
1770950695720196600,9.651196533203125,0,-15.468750953674316,-13.27500057220459
1770950695730196500,9.661196533203125,-0.20625001192092896,-15.412500381469727,-13.18125057220459
1770950695740196600,9.671196533203124,-0.24375000596046448,-15.33750057220459,-12.843750953674316
1770950695750196500,9.681196533203124,-0.581250011920929,-15.300000190734863,-12.206250190734863
1770950695760196600,9.691196533203126,-0.7125000357627869,-15.393750190734863,-11.77500057220459
1770950695770196500,9.701196533203126,-0.768750011920929,-15.300000190734863,-11.100000381469727
1770950695780196600,9.711196533203125,-0.675000011920929,-15.225000381469727,-10.706250190734863
1770950695790196500,9.721196533203125,-0.4125000238418579,-15.33750057220459,-9.956250190734863
1770950695800196600,9.731196533203125,0.05625000223517418,-15.731250762939453,-10.331250190734863
1770950695810196500,9.741196533203125,0.45000001788139343,-16.368751525878906,-10.27500057220459
1770950695820196600,9.751196533203125,0.4687500298023224,-16.912500381469727,-10.256250381469727
1770950695830196500,9.761196533203124,0.9375000596046448,-17.231250762939453,-10.237500190734863
1770950695840196600,9.771196533203126,1.6500000953674316,-17.775001525878906,-10.237500190734863
1770950695850196500,9.781196533203126,1.8937500715255737,-18.168750762939453,-10.162500381469727
1770950695860196600,9.791196533203125,2.231250047683716,-18.356250762939453,-9.675000190734863
1770950695870196500,9.801196533203125,2.418750047683716,-18.600000381469727,-9.131250381469727
1770950695880196600,9.811196533203125,2.5687501430511475,-18.76875114440918,-8.30625057220459
1770950695890196500,9.821196533203125,2.7375001907348633,-18.5625,-8.11875057220459
1770950695900196600,9.831196533203125,3.5812501907348633,-18.412500381469727,-7.781250476837158
1770950695910196500,9.841196533203124,3.543750047683716,-18.5625,-7.687500476837158
1770950695920196600,9.851196533203124,3.825000047683716,-18.450000762939453,-7.331250190734863
1770950695930196500,9.861196533203126,3.9750001430511475,-18.67500114440918,-7.125000476837158
1770950695940196600,9.871196533203126,4.125,-18.806251525878906,-7.181250095367432
1770950695950196500,9.881196533203125,4.068750381469727,-18.881250381469727,-7.500000476837158
1770950695960196600,9.891196533203125,4.162500381469727,-18.918750762939453,-7.387500286102295
1770950695970196500,9.901196533203125,4.237500190734863,-18.9375,-7.368750095367432
1770950695980196600,9.911196533203125,3.8812501430511475,-19.125,-7.500000476837158
1770950695990196500,9.921196533203124,4.143750190734863,-19.14375114440918,-7.275000095367432
1770950696000196600,9.931196533203124,4.03125,-19.23750114440918,-7.387500286102295
1770950696010196500,9.941196533203126,4.237500190734863,-19.200000762939453,-7.462500095367432
1770950696020196600,9.951196533203126,4.387500286102295,-19.33125114440918,-7.500000476837158
1770950696030196500,9.961196533203125,4.481250286102295,-19.462501525878906,-7.125000476837158
1770950696040196600,9.971196533203125,4.331250190734863,-19.462501525878906,-7.106250286102295
1770950696050196500,9.981196533203125,4.462500095367432,-19.42500114440918,-7.012500286102295
1770950696060196600,9.991196533203125,4.5,-19.293750762939453,-6.843750476837158
1770950696070196500,10.001196533203125,4.443750381469727,-19.21875,-6.918750286102295
1770950696080196600,10.011196533203124,4.368750095367432,-19.21875,-6.712500095367432
1770950696090196500,10.021196533203126,4.3125,-18.900001525878906,-6.412500381469727
1770950696100196600,10.031196533203126,4.143750190734863,-18.787500381469727,-6.225000381469727
1770950696110196500,10.041196533203125,4.21875,-18.76875114440918,-6.281250476837158
1770950696120196600,10.051196533203125,4.5,-18.600000381469727,-6.412500381469727
1770950696130196500,10.061196533203125,4.275000095367432,-18.806251525878906,-6.487500190734863
1770950696140196600,10.071196533203125,4.21875,-18.918750762939453,-6.525000095367432
1770950696150196500,10.081196533203125,4.425000190734863,-18.900001525878906,-6.881250381469727
1770950696160196600,10.091196533203124,4.293750286102295,-18.918750762939453,-7.293750286102295
1770950696170196500,10.101196533203124,4.3125,-19.256250381469727,-7.781250476837158
1770950696180196600,10.111196533203126,4.068750381469727,-19.368751525878906,-7.762500286102295
1770950696190196500,10.121196533203126,3.9000000953674316,-19.23750114440918,-7.893750190734863
1770950696200196600,10.131196533203125,3.562500238418579,-19.5,-7.800000190734863
1770950696210196500,10.141196533203125,3.4125001430511475,-19.59375,-7.650000095367432
1770950696220196600,10.151196533203125,3.281250238418579,-19.556251525878906,-7.706250190734863
1770950696230196500,10.161196533203125,2.7562501430511475,-19.856250762939453,-7.387500286102295
1770950696240196600,10.171196533203124,2.71875,-20.025001525878906,-7.125000476837158
1770950696250196500,10.181196533203124,2.325000047683716,-20.025001525878906,-6.618750095367432
1770950696260196600,10.191196533203126,2.0625,-20.15625,-6.693750381469727
1770950696270196500,10.201196533203126,2.0812501907348633,-20.26875114440918,-6.562500476837158
1770950696280196600,10.211196533203125,2.231250047683716,-20.212501525878906,-6.318750381469727
1770950696290196500,10.221196533203125,2.4000000953674316,-20.193750381469727,-6.168750286102295
1770950696300196600,10.231196533203125,2.2125000953674316,-20.287500381469727,-5.850000381469727
1770950696310196500,10.241196533203125,2.3625001907348633,-20.36250114440918,-5.71875
1770950696320196600,10.251196533203125,2.3625001907348633,-20.381250381469727,-5.8125
1770950696330196500,10.261196533203124,2.8125,-20.625,-6.337500095367432
1770950696340196600,10.271196533203126,3.3937501907348633,-20.71875,-6.618750095367432
1770950696350196500,10.281196533203126,3.6000001430511475,-20.83125114440918,-6.900000095367432
1770950696360196600,10.291196533203125,3.8062500953674316,-21.075000762939453,-7.256250381469727
1770950696370196500,10.301196533203125,4.068750381469727,-20.981250762939453,-7.406250476837158
1770950696380196600,10.311196533203125,4.462500095367432,-21.037500381469727,-7.462500095367432
1770950696390196500,10.321196533203125,4.706250190734863,-20.681251525878906,-7.650000095367432
1770950696400196600,10.331196533203125,5.025000095367432,-20.587501525878906,-7.443750381469727
1770950696410196500,10.341196533203124,5.268750190734863,-20.231250762939453,-6.862500190734863
1770950696420196600,10.351196533203124,5.568750381469727,-20.025001525878906,-6.806250095367432
1770950696430196500,10.361196533203126,5.90625,-19.875,-6.825000286102295
1770950696440196600,10.371196533203126,6.506250381469727,-19.537500381469727,-6.787500381469727
1770950696450196500,10.381196533203125,7.068750381469727,-19.350000381469727,-7.087500095367432
1770950696460196600,10.391196533203125,7.856250286102295,-18.993751525878906,-7.237500190734863
1770950696470196500,10.401196533203125,8.512500762939453,-18.67500114440918,-7.500000476837158
1770950696480196600,10.411196533203125,9.225000381469727,-18.318750381469727,-7.875000476837158
1770950696490196500,10.421196533203124,9.543750762939453,-18.075000762939453,-8.49375057220459
1770950696500196600,10.431196533203124,9.825000762939453,-17.587501525878906,-8.756250381469727
1770950696510196500,10.441196533203126,10.350000381469727,-16.950000762939453,-8.850000381469727
1770950696520196600,10.451196533203126,10.387500762939453,-16.51875114440918,-9.1875
1770950696530196500,10.461196533203125,10.40625,-16.14375114440918,-9.5625
1770950696540196600,10.471196533203125,10.293750762939453,-15.862500190734863,-10.350000381469727
1770950696550196500,10.481196533203125,10.40625,-15.61875057220459,-10.800000190734863
1770950696560196600,10.491196533203125,10.18125057220459,-15.112500190734863,-11.21250057220459
1770950696570196500,10.501196533203125,10.27500057220459,-14.568750381469727,-11.512500762939453
1770950696580196600,10.511196533203124,10.03125,-14.268750190734863,-11.8125
1770950696590196500,10.521196533203126,9.918750762939453,-14.287500381469727,-12.43125057220459
1770950696600196600,10.531196533203126,9.825000762939453,-13.875000953674316,-12.375000953674316
1770950696610196500,10.541196533203125,9.693750381469727,-13.537500381469727,-12.412500381469727
1770950696620196600,10.551196533203125,9.300000190734863,-13.481250762939453,-12.300000190734863
1770950696630196500,10.561196533203125,8.943750381469727,-13.518750190734863,-12.225000381469727
1770950696640196600,10.571196533203125,8.943750381469727,-13.74375057220459,-12.093750953674316
1770950696650196500,10.581196533203125,8.49375057220459,-14.062500953674316,-12.168750762939453
1770950696660196600,10.591196533203124,8.475000381469727,-14.287500381469727,-11.981250762939453
1770950696670196500,10.601196533203124,8.15625,-14.381250381469727,-11.512500762939453
1770950696680196600,10.611196533203126,8.325000762939453,-14.662500381469727,-11.550000190734863
1770950696690196500,10.621196533203126,8.4375,-15.112500190734863,-11.15625
1770950696700196600,10.631196533203125,8.756250381469727,-15.468750953674316,-11.11875057220459
1770950696710196500,10.641196533203125,9.018750190734863,-15.90000057220459,-10.631250381469727
1770950696720196600,10.651196533203125,9.262500762939453,-16.275001525878906,-10.387500762939453
1770950696730196500,10.661196533203125,9.862500190734863,-16.556251525878906,-9.84375
1770950696740196600,10.671196533203124,10.46250057220459,-17.0625,-9.33750057220459
1770950696750196500,10.681196533203124,11.34375,-17.493751525878906,-9
1770950696760196600,10.691196533203126,11.850000381469727,-18.262500762939453,-8.625
1770950696770196500,10.701196533203126,12.506250381469727,-18.9375,-8.475000381469727
1770950696780196600,10.711196533203125,13.125000953674316,-19.5,-7.875000476837158
1770950696790196500,10.721196533203125,13.36875057220459,-19.725000381469727,-7.875000476837158
1770950696800196600,10.731196533203125,13.781250953674316,-20.15625,-7.743750095367432
1770950696810196500,10.741196533203125,14.100000381469727,-20.64375114440918,-7.893750190734863
1770950696820196600,10.751196533203125,14.175000190734863,-20.64375114440918,-8.006250381469727
1770950696830196500,10.761196533203124,14.081250190734863,-20.83125114440918,-8.11875057220459
1770950696840196600,10.771196533203126,14.11875057220459,-20.568750381469727,-8.4375
1770950696850196500,10.781196533203126,14.006250381469727,-20.381250381469727,-8.53125
1770950696860196600,10.791196533203125,13.83750057220459,-19.98750114440918,-8.831250190734863
1770950696870196500,10.801196533203125,14.137500762939453,-19.837501525878906,-8.700000762939453
1770950696880196600,10.811196533203125,14.30625057220459,-19.51875114440918,-8.71875
1770950696890196500,10.821196533203125,14.418750762939453,-19.21875,-8.34375
1770950696900196600,10.831196533203125,14.531250953674316,-19.481250762939453,-8.606250762939453
1770950696910196500,10.841196533203124,14.49375057220459,-19.3125,-8.40000057220459
1770950696920196600,10.851196533203124,14.250000953674316,-19.59375,-8.4375
1770950696930196500,10.861196533203126,13.856250762939453,-19.650001525878906,-8.40000057220459
1770950696940196600,10.871196533203126,13.83750057220459,-19.631250381469727,-8.475000381469727
1770950696950196500,10.881196533203125,13.500000953674316,-19.743751525878906,-8.96250057220459
1770950696960196600,10.891196533203125,13.143750190734863,-19.6875,-9.075000762939453
1770950696970196500,10.901196533203125,12.825000762939453,-19.462501525878906,-9.375
1770950696980196600,10.911196533203125,12.80625057220459,-19.181251525878906,-9.262500762939453
1770950696990196500,10.921196533203124,12.562500953674316,-18.993751525878906,-9.356250762939453
1770950697000196600,10.931196533203124,12.637500762939453,-18.787500381469727,-9.206250190734863
1770950697010196500,10.941196533203126,13.106250762939453,-18.5625,-9.225000381469727
1770950697020196600,10.951196533203126,13.331250190734863,-18.506250381469727,-9.131250381469727
1770950697030196500,10.961196533203125,13.706250190734863,-18.65625,-9.112500190734863
1770950697040196600,10.971196533203125,13.687500953674316,-18.86250114440918,-9.1875
1770950697050196500,10.981196533203125,13.687500953674316,-19.125,-9.412500381469727
1770950697060196600,10.991196533203125,13.237500190734863,-19.162500381469727,-9.506250381469727
1770950697070196500,11.001196533203125,13.125000953674316,-19.462501525878906,-9.768750190734863
1770950697080196600,11.011196533203124,12.825000762939453,-19.61250114440918,-9.918750762939453
1770950697090196500,11.021196533203126,12.468750953674316,-19.668750762939453,-10.050000190734863
1770950697100196600,11.031196533203126,12.187500953674316,-19.89375114440918,-10.293750762939453
1770950697110196500,11.041196533203125,11.71875,-19.78125,-10.350000381469727
1770950697120196600,11.051196533203125,11.53125,-19.762500762939453,-10.46250057220459
1770950697130196500,11.061196533203125,11.081250190734863,-19.725000381469727,-10.443750381469727
1770950697140196600,11.071196533203125,11.006250381469727,-19.743751525878906,-10.55625057220459
1770950697150196500,11.081196533203125,11.137500762939453,-19.650001525878906,-10.65000057220459
1770950697160196600,11.091196533203124,11.15625,-19.59375,-10.612500190734863
1770950697170196500,11.101196533203124,10.987500190734863,-19.725000381469727,-10.6875
1770950697180196600,11.111196533203126,10.987500190734863,-19.575000762939453,-10.612500190734863
1770950697190196500,11.121196533203126,10.93125057220459,-19.387500762939453,-10.575000762939453
1770950697200196600,11.131196533203125,10.875,-19.275001525878906,-10.537500381469727
1770950697210196500,11.141196533203125,11.11875057220459,-19.181251525878906,-10.537500381469727
1770950697220196600,11.151196533203125,11.006250381469727,-19.087501525878906,-10.6875
1770950697230196500,11.161196533203125,10.706250190734863,-18.900001525878906,-10.631250381469727
1770950697240196600,11.171196533203124,10.725000381469727,-18.637500762939453,-10.875
1770950697250196500,11.181196533203124,10.818750381469727,-18.20625114440918,-11.081250190734863
1770950697260196600,11.191196533203126,10.83750057220459,-17.850000381469727,-11.15625
1770950697270196500,11.201196533203126,10.93125057220459,-17.475000381469727,-11.25
1770950697280196600,11.211196533203125,11.02500057220459,-17.0625,-11.418750762939453
1770950697290196500,11.221196533203125,11.081250190734863,-16.556251525878906,-11.756250381469727
1770950697300196600,11.231196533203125,11.34375,-16.181251525878906,-11.90625
1770950697310196500,11.241196533203125,11.943750381469727,-15.750000953674316,-12.468750953674316
1770950697320196600,11.251196533203125,12.168750762939453,-14.96250057220459,-12.581250190734863
1770950697330196500,11.261196533203124,12.225000381469727,-14.325000762939453,-12.787500381469727
1770950697340196600,11.271196533203126,12.05625057220459,-13.668750762939453,-13.125000953674316
1770950697350196500,11.281196533203126,12,-13.200000762939453,-13.36875057220459
1770950697360196600,11.291196533203125,12.187500953674316,-12.506250381469727,-13.575000762939453
1770950697370196500,11.301196533203125,12.037500381469727,-11.90625,-13.893750190734863
1770950697380196600,11.311196533203125,12.187500953674316,-11.325000762939453,-14.343750953674316
1770950697390196500,11.321196533203125,11.831250190734863,-10.706250190734863,-14.268750190734863
1770950697400196600,11.331196533203125,11.381250381469727,-10.21875,-14.381250381469727
1770950697410196500,11.341196533203124,11.15625,-9.99375057220459,-14.456250190734863
1770950697420196600,11.351196533203124,11.081250190734863,-9.61875057220459,-14.606250762939453
1770950697430196500,11.361196533203126,10.875,-9.206250190734863,-14.30625057220459
1770950697440196600,11.371196533203126,10.3125,-9.037500381469727,-14.175000190734863
1770950697450196500,11.381196533203125,10.293750762939453,-9.112500190734863,-13.818750381469727
1770950697460196600,11.391196533203125,10.03125,-8.96250057220459,-13.443750381469727
1770950697470196500,11.401196533203125,9.61875057220459,-9.131250381469727,-13.350000381469727
1770950697480196600,11.411196533203125,9.581250190734863,-9.356250762939453,-13.218750953674316
1770950697490196500,11.421196533203124,9.318750381469727,-9.262500762939453,-13.012500762939453
1770950697500196600,11.431196533203124,9.393750190734863,-9.393750190734863,-12.750000953674316
1770950697510196500,11.441196533203126,9.450000762939453,-9.637500762939453,-13.031250953674316
1770950697520196600,11.451196533203126,9.5625,-9.80625057220459,-13.106250762939453
1770950697530196500,11.461196533203125,9.206250190734863,-9.65625,-13.18125057220459
1770950697540196600,11.471196533203125,9,-9.71250057220459,-13.237500190734863
1770950697550196500,11.481196533203125,9.09375,-10.03125,-13.27500057220459
1770950697560196600,11.491196533203125,9.018750190734863,-10.40625,-13.36875057220459
1770950697570196500,11.501196533203125,9.393750190734863,-10.74375057220459,-13.387500762939453
1770950697580196600,11.511196533203124,9.487500190734863,-11.25,-13.331250190734863
1770950697590196500,11.521196533203126,9.862500190734863,-11.700000762939453,-13.106250762939453
1770950697600196600,11.531196533203126,10.36875057220459,-12.206250190734863,-12.825000762939453
1770950697610196500,11.541196533203125,11.175000190734863,-12.71250057220459,-12.543750762939453
1770950697620196600,11.551196533203125,11.831250190734863,-13.162500381469727,-12.318750381469727
1770950697630196500,11.561196533203125,12.656250953674316,-13.162500381469727,-12.075000762939453
1770950697640196600,11.571196533203125,13.537500381469727,-13.387500762939453,-11.793750762939453
1770950697650196500,11.581196533203125,14.043750762939453,-13.800000190734863,-11.662500381469727
1770950697660196600,11.591196533203124,14.40000057220459,-13.818750381469727,-11.700000762939453
1770950697670196500,11.601196533203124,14.531250953674316,-13.687500953674316,-11.8125
1770950697680196600,11.611196533203126,14.700000762939453,-13.537500381469727,-12.206250190734863
1770950697690196500,11.621196533203126,14.718750953674316,-13.481250762939453,-12.637500762939453
1770950697700196600,11.631196533203125,14.456250190734863,-13.312500953674316,-12.61875057220459
1770950697710196500,11.641196533203125,14.062500953674316,-13.143750190734863,-12.581250190734863
1770950697720196600,11.651196533203125,13.631250381469727,-12.937500953674316,-12.693750381469727
1770950697730196500,11.661196533203125,13.631250381469727,-12.637500762939453,-12.918750762939453
1770950697740196600,11.671196533203124,13.46250057220459,-12.262500762939453,-12.562500953674316
1770950697750196500,11.681196533203124,13.500000953674316,-12,-12.112500190734863
1770950697760196600,11.691196533203126,13.443750381469727,-12,-11.568750381469727
1770950697770196500,11.701196533203126,13.331250190734863,-12.15000057220459,-10.93125057220459
1770950697780196600,11.711196533203125,13.387500762939453,-12.206250190734863,-10.59375
1770950697790196500,11.721196533203125,13.331250190734863,-12.262500762939453,-10.387500762939453
1770950697800196600,11.731196533203125,13.256250381469727,-12.33750057220459,-10.200000762939453
1770950697810196500,11.741196533203125,12.918750762939453,-12.281250953674316,-9.90000057220459
1770950697820196600,11.751196533203125,12.918750762939453,-12.656250953674316,-10.256250381469727
1770950697830196500,11.761196533203124,12.675000190734863,-13.012500762939453,-10.83750057220459
1770950697840196600,11.771196533203126,12.24375057220459,-13.08750057220459,-11.193750381469727
1770950697850196500,11.781196533203126,11.77500057220459,-12.750000953674316,-11.362500190734863
1770950697860196600,11.791196533203125,11.550000190734863,-12.468750953674316,-11.53125
1770950697870196500,11.801196533203125,10.950000762939453,-12.450000762939453,-11.90625
1770950697880196600,11.811196533203125,10.443750381469727,-12.356250762939453,-12.05625057220459
1770950697890196500,11.821196533203125,9.862500190734863,-12.52500057220459,-12.093750953674316
1770950697900196600,11.831196533203125,9.356250762939453,-12.318750381469727,-11.943750381469727
1770950697910196500,11.841196533203124,8.86875057220459,-12.075000762939453,-11.625
1770950697920196600,11.851196533203124,8.550000190734863,-12.018750190734863,-11.4375
1770950697930196500,11.861196533203126,8.30625057220459,-11.981250762939453,-11.418750762939453
1770950697940196600,11.871196533203126,8.02500057220459,-12.075000762939453,-11.643750190734863
1770950697950196500,11.881196533203125,7.968750476837158,-12.15000057220459,-11.381250381469727
1770950697960196600,11.891196533203125,7.893750190734863,-12.43125057220459,-11.700000762939453
1770950697970196500,11.901196533203125,7.856250286102295,-12.393750190734863,-11.793750762939453
1770950697980196600,11.911196533203125,7.406250476837158,-12.693750381469727,-11.8125
1770950697990196500,11.921196533203124,7.125000476837158,-13.031250953674316,-11.96250057220459
1770950698000196600,11.931196533203124,6.843750476837158,-13.218750953674316,-12.093750953674316
1770950698010196500,11.941196533203126,6.525000095367432,-13.500000953674316,-12.112500190734863
1770950698020196600,11.951196533203126,6.318750381469727,-13.668750762939453,-12.037500381469727
1770950698030196500,11.961196533203125,5.962500095367432,-13.83750057220459,-12.093750953674316
1770950698040196600,11.971196533203125,5.587500095367432,-13.762500762939453,-11.550000190734863
1770950698050196500,11.981196533203125,5.362500190734863,-13.893750190734863,-11.418750762939453
1770950698060196600,11.991196533203125,5.456250190734863,-13.875000953674316,-11.325000762939453
1770950698070196500,12.001196533203125,5.212500095367432,-13.912500381469727,-11.137500762939453
1770950698080196600,12.011196533203124,5.081250190734863,-13.875000953674316,-11.100000381469727
1770950698090196500,12.021196533203126,5.231250286102295,-13.987500190734863,-11.02500057220459
1770950698100196600,12.031196533203126,5.025000095367432,-14.156250953674316,-10.800000190734863
1770950698110196500,12.041196533203125,5.306250095367432,-14.21250057220459,-10.83750057220459
1770950698120196600,12.051196533203125,5.400000095367432,-14.062500953674316,-10.96875
1770950698130196500,12.061196533203125,5.775000095367432,-14.081250190734863,-11.175000190734863
1770950698140196600,12.071196533203125,6.075000286102295,-13.968750953674316,-11.418750762939453
1770950698150196500,12.081196533203125,6.675000190734863,-13.706250190734863,-11.456250190734863
1770950698160196600,12.091196533203124,7.237500190734863,-13.500000953674316,-11.475000381469727
1770950698170196500,12.101196533203124,8.043750762939453,-13.031250953674316,-11.8125
1770950698180196600,12.111196533203126,8.8125,-12.581250190734863,-12.206250190734863
1770950698190196500,12.121196533203126,9.731250762939453,-11.58750057220459,-12.487500190734863
1770950698200196600,12.131196533203125,10.612500190734863,-11.100000381469727,-12.90000057220459
1770950698210196500,12.141196533203125,11.15625,-10.08750057220459,-13.200000762939453
1770950698220196600,12.151196533203125,11.40000057220459,-9.318750381469727,-13.65000057220459
1770950698230196500,12.161196533203125,11.86875057220459,-8.456250190734863,-14.100000381469727
1770950698240196600,12.171196533203124,12.112500190734863,-7.443750381469727,-14.58750057220459
1770950698250196500,12.181196533203124,11.625,-6.431250095367432,-14.86875057220459
1770950698260196600,12.191196533203126,11.325000762939453,-5.268750190734863,-15.52500057220459
1770950698270196500,12.201196533203126,10.3125,-4.631250381469727,-15.90000057220459
1770950698280196600,12.211196533203125,9.46875,-3.5812501907348633,-16.293750762939453
1770950698290196500,12.221196533203125,8.175000190734863,-2.8125,-16.837501525878906
1770950698300196600,12.231196533203125,7.125000476837158,-1.818750023841858,-16.743751525878906
1770950698310196500,12.241196533203125,5.775000095367432,-0.9000000357627869,-17.118751525878906
1770950698320196600,12.251196533203125,4.875,-0.01875000074505806,-17.381250381469727
1770950698330196500,12.261196533203124,4.087500095367432,0.862500011920929,-17.587501525878906
1770950698350196500,12.281196533203126,2.625,2.418750047683716,-18.075000762939453
1770950698360196600,12.291196533203125,1.912500023841858,3.168750047683716,-18.28125
1770950698370196500,12.301196533203125,1.7812501192092896,3.843750238418579,-18.243751525878906
1770950698380196600,12.311196533203125,1.8000000715255737,4.481250286102295,-18.84375
1770950698390196500,12.321196533203125,1.8937500715255737,5.006250381469727,-19.14375114440918
1770950698400196600,12.331196533203125,1.8000000715255737,5.34375,-19.837501525878906
1770950698410196500,12.341196533203124,2.043750047683716,5.568750381469727,-20.418750762939453
1770950698420196600,12.351196533203124,2.7750000953674316,5.568750381469727,-21.11250114440918
1770950698430196500,12.361196533203126,3.0187501907348633,5.681250095367432,-21.1875
1770950698440196600,12.371196533203126,3.6187500953674316,5.793750286102295,-21.30000114440918
1770950698450196500,12.381196533203125,4.293750286102295,6.093750476837158,-22.03125
1770950698460196600,12.391196533203125,4.818750381469727,6.056250095367432,-22.5
1770950698470196500,12.401196533203125,5.4375,6.168750286102295,-22.78125
1770950698480196600,12.411196533203125,6.243750095367432,6.468750476837158,-22.78125
1770950698490196500,12.421196533203124,6.918750286102295,6.712500095367432,-22.725000381469727
1770950698500196600,12.431196533203124,7.162500381469727,7.050000190734863,-22.3125
1770950698510196500,12.441196533203126,7.931250095367432,7.350000381469727,-22.631250381469727
1770950698520196600,12.451196533203126,8.643750190734863,7.575000286102295,-22.96875
1770950698530196500,12.461196533203125,8.756250381469727,7.668750286102295,-22.80000114440918
1770950698540196600,12.471196533203125,8.643750190734863,7.968750476837158,-22.6875
1770950698550196500,12.481196533203125,8.58750057220459,8.40000057220459,-22.668750762939453
1770950698560196600,12.491196533203125,8.15625,8.606250762939453,-22.481250762939453
1770950698570196500,12.501196533203125,7.593750476837158,9,-22.481250762939453
1770950698580196600,12.511196533203124,6.862500190734863,9.675000190734863,-22.162500381469727
1770950698590196500,12.521196533203126,5.925000190734863,10.08750057220459,-22.05000114440918
1770950698600196600,12.531196533203126,5.043750286102295,10.6875,-21.731250762939453
1770950698610196500,12.541196533203125,4.012500286102295,10.950000762939453,-21.525001525878906
1770950698620196600,12.551196533203125,3.6187500953674316,11.21250057220459,-21.262500762939453
1770950698630196500,12.561196533203125,2.71875,11.550000190734863,-20.92500114440918
1770950698640196600,12.571196533203125,2.0812501907348633,12,-20.568750381469727
1770950698650196500,12.581196533203125,1.443750023841858,12.15000057220459,-20.25
1770950698660196600,12.591196533203124,0.8437500596046448,11.831250190734863,-20.418750762939453
1770950698670196500,12.601196533203124,0.30000001192092896,11.90625,-20.137500762939453
1770950698680196600,12.611196533203126,-0.24375000596046448,11.887500762939453,-20.025001525878906
1770950698690196500,12.621196533203126,-0.4312500059604645,12.131250381469727,-19.650001525878906
1770950698700196600,12.631196533203125,-0.9375000596046448,12.356250762939453,-19.42500114440918
1770950698710196500,12.641196533203125,-1.256250023841858,12.300000190734863,-19.5
1770950698720196600,12.651196533203125,-1.8375000953674316,11.981250762939453,-19.650001525878906
1770950698730196500,12.661196533203125,-2.2687501907348633,11.86875057220459,-19.6875
1770950698740196600,12.671196533203124,-2.34375,11.925000190734863,-19.51875114440918
1770950698750196500,12.681196533203124,-2.231250047683716,11.8125,-19.575000762939453
1770950698760196600,12.691196533203126,-2.1937501430511475,11.53125,-19.668750762939453
1770950698770196500,12.701196533203126,-1.8750001192092896,11.11875057220459,-20.212501525878906
1770950698780196600,12.711196533203125,-1.5750000476837158,10.65000057220459,-20.64375114440918
1770950698790196500,12.721196533203125,-1.2750000953674316,10.256250381469727,-20.850000381469727
1770950698800196600,12.731196533203125,-0.768750011920929,10.21875,-20.943750381469727
1770950698810196500,12.741196533203125,-0.375,10.125,-21.225000381469727
1770950698820196600,12.751196533203125,-0.09375,10.050000190734863,-21.375
1770950698830196500,12.761196533203124,-0.07500000298023224,10.162500381469727,-21.356250762939453
1770950698840196600,12.771196533203126,-0.15000000596046448,10.012500762939453,-21.46875
1770950698850196500,12.781196533203126,-0.28125,10.200000762939453,-21.11250114440918
1770950698860196600,12.791196533203125,-0.48750001192092896,10.631250381469727,-20.512500762939453
1770950698870196500,12.801196533203125,-0.8812500238418579,11.081250190734863,-20.137500762939453
1770950698880196600,12.811196533203125,-1.3312500715255737,11.25,-19.950000762939453
1770950698890196500,12.821196533203125,-1.7437500953674316,11.30625057220459,-19.631250381469727
1770950698900196600,12.831196533203125,-1.9312500953674316,11.512500762939453,-19.125
1770950698910196500,12.841196533203124,-2.4562501907348633,11.831250190734863,-18.225000381469727
1770950698920196600,12.851196533203124,-2.887500047683716,12.468750953674316,-17.025001525878906
1770950698930196500,12.861196533203126,-3.3000001907348633,12.956250190734863,-16.068750381469727
1770950698940196600,12.871196533203126,-3.750000238418579,13.293750762939453,-15.412500381469727
1770950698950196500,12.881196533203125,-3.731250047683716,13.593750953674316,-14.550000190734863
1770950698960196600,12.891196533203125,-3.8062500953674316,13.950000762939453,-13.725000381469727
1770950698970196500,12.901196533203125,-3.9937500953674316,14.343750953674316,-12.975000381469727
1770950698980196600,12.911196533203125,-4.5,14.793750762939453,-12.468750953674316
1770950698990196500,12.921196533203124,-4.556250095367432,14.812500953674316,-12.206250190734863
1770950699000196600,12.931196533203124,-4.706250190734863,14.756250381469727,-12.093750953674316
1770950699010196500,12.941196533203126,-5.025000095367432,14.77500057220459,-12.037500381469727
1770950699020196600,12.951196533203126,-5.043750286102295,14.812500953674316,-11.90625
1770950699030196500,12.961196533203125,-5.493750095367432,14.925000190734863,-11.550000190734863
1770950699040196600,12.971196533203125,-5.943750381469727,14.850000381469727,-11.456250190734863
1770950699050196500,12.981196533203125,-6.056250095367432,14.737500190734863,-11.043750762939453
1770950699060196600,12.991196533203125,-5.981250286102295,14.568750381469727,-10.65000057220459
1770950699070196500,13.001196533203125,-5.925000190734863,14.812500953674316,-10.36875057220459
1770950699080196600,13.011196533203124,-5.71875,15.168750762939453,-9.825000762939453
1770950699090196500,13.021196533203126,-5.681250095367432,15.33750057220459,-9.28125
1770950699100196600,13.031196533203126,-5.756250381469727,15.281250953674316,-8.49375057220459
1770950699110196500,13.041196533203125,-5.850000381469727,15.318750381469727,-8.043750762939453
1770950699120196600,13.051196533203125,-5.90625,15.600000381469727,-6.862500190734863
1770950699130196500,13.061196533203125,-6.206250190734863,15.862500190734863,-5.962500095367432
1770950699140196600,13.071196533203125,-6.675000190734863,16.012500762939453,-5.081250190734863
1770950699150196500,13.081196533203125,-7.143750190734863,15.918750762939453,-3.825000047683716
1770950699160196600,13.091196533203124,-7.668750286102295,15.468750953674316,-3.3000001907348633
1770950699170196500,13.101196533203124,-7.912500381469727,15.168750762939453,-2.4750001430511475
1770950699180196600,13.111196533203126,-8.362500190734863,15.131250381469727,-1.7437500953674316
1770950699190196500,13.121196533203126,-8.68125057220459,14.925000190734863,-0.8437500596046448
1770950699200196600,13.131196533203125,-9.1875,14.456250190734863,-0.11250000447034836
1770950699210196500,13.141196533203125,-9.487500190734863,14.137500762939453,0.6187500357627869
1770950699220196600,13.151196533203125,-9.956250190734863,13.612500190734863,1.3875000476837158
1770950699230196500,13.161196533203125,-10.21875,13.068750381469727,1.8000000715255737
1770950699240196600,13.171196533203124,-10.612500190734863,12.731250762939453,2.6625001430511475
1770950699250196500,13.181196533203124,-10.83750057220459,12.393750190734863,3.3937501907348633
1770950699260196600,13.191196533203126,-11.21250057220459,12.037500381469727,4.237500190734863
1770950699270196500,13.201196533203126,-11.21250057220459,11.475000381469727,4.6875
1770950699280196600,13.211196533203125,-11.137500762939453,11.0625,5.081250190734863
1770950699290196500,13.221196533203125,-11.15625,10.612500190734863,5.268750190734863
1770950699300196600,13.231196533203125,-11.006250381469727,10.387500762939453,5.550000190734863
1770950699310196500,13.241196533203125,-10.875,10.050000190734863,5.587500095367432
1770950699320196600,13.251196533203125,-10.612500190734863,10.050000190734863,5.925000190734863
