time,seconds_elapsed,z,y,x
1770950686230196500,0.161196533203125,-3.6937501430511475,55.687503814697266,52.087501525878906
1770950686270196500,0.201196533203125,-2.5500001907348633,56.400001525878906,51.656253814697266
1770950686280196600,0.211196533203125,-2.3812501430511475,56.47500228881836,51.45000076293945
1770950686290196500,0.221196533203125,-2.1187500953674316,56.23125076293945,51.13125228881836
1770950686300196600,0.231196533203125,-2.0812501907348633,56.23125076293945,50.587501525878906
1770950686310196500,0.241196533203125,-1.7062500715255737,56.212501525878906,49.593753814697266
1770950686320196600,0.251196533203125,-1.21875,55.85625076293945,47.88750076293945
1770950686330196500,0.261196533203125,-1.3125,55.51875305175781,46.6875
1770950686340196600,0.271196533203125,-1.1437500715255737,55.23750305175781,45.63750076293945
1770950686350196500,0.281196533203125,-1.0875000953674316,54.88125228881836,44.75625228881836
1770950686360196600,0.291196533203125,-1.03125,54.41250228881836,43.66875076293945
1770950686370196500,0.301196533203125,-1.03125,54.243751525878906,43.01250076293945
1770950686380196600,0.311196533203125,-0.9750000238418579,54.000003814697266,42.712501525878906
1770950686390196500,0.321196533203125,-1.3125,53.88750076293945,42.806251525878906
1770950686400196600,0.331196533203125,-1.7812501192092896,54.000003814697266,44.0625
1770950686410196500,0.341196533203125,-1.8000000715255737,54.58125305175781,45.50625228881836
1770950686420196600,0.351196533203125,-1.9312500953674316,54.54375076293945,46.38750076293945
1770950686430196500,0.361196533203125,-2.137500047683716,54.58125305175781,46.78125
1770950686440196600,0.371196533203125,-2.34375,54.88125228881836,47.71875
1770950686450196500,0.381196533203125,-2.6437501907348633,54.937503814697266,48.375003814697266
1770950686460196600,0.391196533203125,-2.981250047683716,55.087501525878906,49.593753814697266
1770950686470196500,0.401196533203125,-3.1125001907348633,54.937503814697266,50.400001525878906
1770950686480196600,0.411196533203125,-3.4312500953674316,55.01250076293945,51.01875305175781
1770950686490196500,0.421196533203125,-3.656250238418579,54.82500076293945,51.41250228881836
1770950686500196600,0.431196533203125,-4.40625,55.06875228881836,52.312503814697266
1770950686510196500,0.441196533203125,-4.78125,55.368751525878906,53.51250076293945
1770950686520196600,0.451196533203125,-5.175000190734863,55.44375228881836,54.562503814697266
1770950686530196500,0.461196533203125,-5.737500190734863,55.76250076293945,55.57500076293945
1770950686540196600,0.471196533203125,-5.925000190734863,55.89375305175781,55.781253814697266
1770950686550196500,0.481196533203125,-6.225000381469727,56.13750076293945,56.36250305175781
1770950686560196600,0.491196533203125,-6.037500381469727,56.41875076293945,56.531253814697266
1770950686570196500,0.501196533203125,-6.262500286102295,56.437503814697266,56.66250228881836
1770950686580196600,0.511196533203125,-6,56.08125305175781,56.45625305175781
1770950686590196500,0.521196533203125,-6.225000381469727,55.72500228881836,56.306251525878906
1770950686600196600,0.531196533203125,-6.281250476837158,55.57500076293945,55.89375305175781
1770950686610196500,0.541196533203125,-6.018750190734863,55.35000228881836,55.181251525878906
1770950686620196600,0.551196533203125,-5.868750095367432,55.01250076293945,54.58125305175781
1770950686630196500,0.561196533203125,-5.700000286102295,55.06875228881836,53.88750076293945
1770950686640196600,0.571196533203125,-5.8125,54.82500076293945,53.26875305175781
1770950686650196500,0.581196533203125,-5.662500381469727,54.656253814697266,52.35000228881836
1770950686660196600,0.591196533203125,-5.550000190734863,54.82500076293945,50.75625228881836
1770950686670196500,0.601196533203125,-5.850000381469727,55.16250228881836,50.38125228881836
1770950686680196600,0.611196533203125,-5.887500286102295,55.16250228881836,50.32500076293945
1770950686690196500,0.621196533203125,-6.093750476837158,55.51875305175781,50.79375076293945
1770950686700196600,0.631196533203125,-6.168750286102295,55.837501525878906,51.11250305175781
1770950686710196500,0.641196533203125,-6.375000476837158,55.98750305175781,51.63750076293945
1770950686720196600,0.651196533203125,-6.750000476837158,56.38125228881836,52.218753814697266
1770950686730196500,0.661196533203125,-7.106250286102295,56.85000228881836,52.931251525878906
1770950686740196600,0.671196533203125,-7.481250286102295,57.01875305175781,53.98125076293945
1770950686750196500,0.681196533203125,-7.031250476837158,57.31875228881836,54.01875305175781
1770950686760196600,0.691196533203125,-7.256250381469727,57.618751525878906,53.85000228881836
1770950686770196500,0.701196533203125,-7.218750476837158,57.82500076293945,53.493751525878906
1770950686780196600,0.711196533203125,-7.200000286102295,57.76875305175781,53.250003814697266
1770950686790196500,0.721196533203125,-7.200000286102295,57.806251525878906,52.95000076293945
1770950686800196600,0.731196533203125,-7.068750381469727,57.656253814697266,52.275001525878906
1770950686810196500,0.741196533203125,-6.900000095367432,57.468753814697266,51.78750228881836
1770950686820196600,0.751196533203125,-6.825000286102295,57.562503814697266,51.656253814697266
1770950686830196500,0.761196533203125,-6.562500476837158,57.11250305175781,51.01875305175781
1770950686840196600,0.771196533203125,-6.243750095367432,57.11250305175781,50.66250228881836
1770950686850196500,0.781196533203125,-6.168750286102295,56.775001525878906,49.837501525878906
1770950686860196600,0.791196533203125,-6.131250381469727,57.07500076293945,49.61250305175781
1770950686870196500,0.801196533203125,-6.112500190734863,56.98125076293945,49.10625076293945
1770950686880196600,0.811196533203125,-5.925000190734863,57.000003814697266,48.76875305175781
1770950686890196500,0.821196533203125,-5.756250381469727,56.94375228881836,48.30000305175781
1770950686900196600,0.831196533203125,-5.625,56.812503814697266,47.681251525878906
1770950686910196500,0.841196533203125,-5.625,56.868751525878906,47.66250228881836
1770950686920196600,0.851196533203125,-5.568750381469727,56.85000228881836,47.10000228881836
1770950686930196500,0.861196533203125,-5.53125,57.13125228881836,46.98750305175781
1770950686940196600,0.871196533203125,-5.418750286102295,56.962501525878906,46.275001525878906
1770950686950196500,0.881196533203125,-5.212500095367432,57.056251525878906,45.84375
1770950686960196600,0.891196533203125,-5.100000381469727,57.11250305175781,45.243751525878906
1770950686970196500,0.901196533203125,-4.987500190734863,57.281253814697266,44.66250228881836
1770950686980196600,0.911196533203125,-4.931250095367432,57.431251525878906,44.17500305175781
1770950686990196500,0.921196533203125,-4.706250190734863,57.618751525878906,43.38750076293945
1770950687000196600,0.931196533203125,-4.275000095367432,57.618751525878906,42.993751525878906
1770950687010196500,0.941196533203125,-4.03125,57.48750305175781,42.431251525878906
1770950687020196600,0.951196533203125,-3.9750001430511475,57.58125305175781,42
1770950687030196500,0.961196533203125,-3.6937501430511475,57.63750076293945,41.41875076293945
1770950687040196600,0.971196533203125,-3.450000047683716,57.82500076293945,41.19375228881836
1770950687050196500,0.981196533203125,-3.2250001430511475,57.69375228881836,40.72500228881836
1770950687060196600,0.991196533203125,-2.7750000953674316,57.73125076293945,40.40625
1770950687070196500,1.001196533203125,-2.6437501907348633,57.86250305175781,40.20000076293945
1770950687080196600,1.011196533203125,-2.512500047683716,57.806251525878906,39.78750228881836
1770950687090196500,1.021196533203125,-2.0250000953674316,57.843753814697266,39.431251525878906
1770950687100196600,1.031196533203125,-1.8937500715255737,57.67500305175781,39.03750228881836
1770950687110196500,1.041196533203125,-1.7812501192092896,57.63750076293945,38.64375305175781
1770950687120196600,1.051196533203125,-1.443750023841858,57.16875076293945,37.98750305175781
1770950687130196500,1.061196533203125,-1.0500000715255737,57.281253814697266,37.5
1770950687140196600,1.071196533203125,-0.9375000596046448,57.07500076293945,36.97500228881836
1770950687150196500,1.081196533203125,-0.4312500059604645,56.906253814697266,36.28125
1770950687160196600,1.091196533203125,-0.39375001192092896,56.79375076293945,36.07500076293945
1770950687170196500,1.101196533203125,-0.35625001788139343,56.73750305175781,35.73750305175781
1770950687180196600,1.111196533203125,-0.11250000447034836,56.718753814697266,35.45625305175781
1770950687190196500,1.121196533203125,0.30000001192092896,56.55000305175781,35.025001525878906
1770950687200196600,1.131196533203125,0.581250011920929,56.79375076293945,34.70625305175781
1770950687210196500,1.141196533203125,0.6375000476837158,56.64375305175781,34.76250076293945
1770950687220196600,1.151196533203125,0.4312500059604645,56.79375076293945,34.51875305175781
1770950687230196500,1.161196533203125,0.22500000894069672,57.01875305175781,34.61250305175781
1770950687240196600,1.171196533203125,0.16875000298023224,57.150001525878906,34.03125
1770950687250196500,1.181196533203125,0.11250000447034836,57.13125228881836,33.86250305175781
1770950687260196600,1.191196533203125,-0.13125000894069672,57.31875228881836,33.806251525878906
1770950687270196500,1.201196533203125,-0.28125,57.35625076293945,33.88125228881836
1770950687280196600,1.211196533203125,-0.581250011920929,57.468753814697266,34.06875228881836
1770950687290196500,1.221196533203125,-0.7312500476837158,57.750003814697266,33.86250305175781
1770950687300196600,1.231196533203125,-0.7875000238418579,57.45000076293945,33.82500076293945
1770950687310196500,1.241196533203125,-0.7312500476837158,57.01875305175781,33.50625228881836
1770950687320196600,1.251196533203125,-0.8437500596046448,56.98125076293945,33.525001525878906
1770950687330196500,1.261196533203125,-1.1062500476837158,57.056251525878906,33.618751525878906
1770950687340196600,1.271196533203125,-1.1437500715255737,56.98125076293945,33.48750305175781
1770950687350196500,1.281196533203125,-1.3125,57.056251525878906,33.46875
1770950687360196600,1.291196533203125,-1.5187500715255737,56.906253814697266,33.48750305175781
1770950687370196500,1.301196533203125,-1.818750023841858,56.55000305175781,33.46875
1770950687380196600,1.311196533203125,-1.6125000715255737,56.55000305175781,33.58125305175781
1770950687390196500,1.321196533203125,-1.8937500715255737,56.66250228881836,33.78750228881836
1770950687400196600,1.331196533203125,-2.0062501430511475,56.47500228881836,34.10625076293945
1770950687410196500,1.341196533203125,-2.0812501907348633,56.04375076293945,34.03125
1770950687420196600,1.351196533203125,-2.1750001907348633,55.556251525878906,34.01250076293945
1770950687430196500,1.361196533203125,-2.5875000953674316,55.29375076293945,34.275001525878906
1770950687440196600,1.371196533203125,-2.793750047683716,54.937503814697266,34.42500305175781
1770950687450196500,1.381196533203125,-2.8312501907348633,54.50625228881836,34.59375
1770950687470196500,1.401196533203125,-3.0562500953674316,53.56875228881836,34.38750076293945
1770950687480196600,1.411196533203125,-3.0187501907348633,53.212501525878906,33.69375228881836
1770950687490196500,1.421196533203125,-2.9250001907348633,52.85625076293945,32.88750076293945
1770950687500196600,1.431196533203125,-2.8125,52.462501525878906,32.51250076293945
1770950687510196500,1.441196533203125,-2.5687501430511475,51.97500228881836,31.668750762939453
1770950687520196600,1.451196533203125,-2.325000047683716,51.431251525878906,30.900001525878906
1770950687530196500,1.461196533203125,-2.043750047683716,50.88750076293945,29.325000762939453
1770950687540196600,1.471196533203125,-1.8562500476837158,50.41875076293945,27.731250762939453
1770950687550196500,1.481196533203125,-1.8000000715255737,49.837501525878906,26.475000381469727
1770950687560196600,1.491196533203125,-1.8937500715255737,49.33125305175781,26.006250381469727
1770950687570196500,1.501196533203125,-1.9875000715255737,48.750003814697266,25.968751907348633
1770950687580196600,1.511196533203125,-2.1187500953674316,48.39375305175781,25.687501907348633
1770950687590196500,1.521196533203125,-2.5500001907348633,47.92500305175781,25.481250762939453
1770950687600196600,1.531196533203125,-2.8687500953674316,47.66250228881836,25.368751525878906
1770950687610196500,1.541196533203125,-3.3375000953674316,47.45625305175781,26.306251525878906
1770950687620196600,1.551196533203125,-3.825000047683716,46.98750305175781,27.150001525878906
1770950687630196500,1.561196533203125,-4.293750286102295,46.837501525878906,28.200000762939453
1770950687640196600,1.571196533203125,-4.387500286102295,46.837501525878906,28.556251525878906
1770950687650196500,1.581196533203125,-4.668750286102295,46.91250228881836,28.837501525878906
1770950687660196600,1.591196533203125,-4.743750095367432,46.837501525878906,28.725000381469727
1770950687670196500,1.601196533203125,-4.612500190734863,46.61250305175781,28.762500762939453
1770950687680196600,1.611196533203125,-4.743750095367432,46.556251525878906,28.950000762939453
1770950687690196500,1.621196533203125,-4.6875,46.48125076293945,29.025001525878906
1770950687700196600,1.631196533203125,-4.650000095367432,46.59375,29.193750381469727
1770950687710196500,1.641196533203125,-5.100000381469727,46.931251525878906,29.325000762939453
1770950687720196600,1.651196533203125,-5.34375,46.95000076293945,29.587501525878906
1770950687730196500,1.661196533203125,-5.662500381469727,47.36250305175781,30.075000762939453
1770950687740196600,1.671196533203125,-6.281250476837158,47.55000305175781,30.918750762939453
1770950687750196500,1.681196533203125,-6.787500381469727,48.01875305175781,31.725000381469727
1770950687760196600,1.691196533203125,-7.125000476837158,48.243751525878906,32.36250305175781
1770950687770196500,1.701196533203125,-7.687500476837158,48.60000228881836,32.98125076293945
1770950687780196600,1.711196533203125,-8.34375,48.78750228881836,33.41250228881836
1770950687790196500,1.721196533203125,-8.49375057220459,48.69375228881836,33.75
1770950687800196600,1.731196533203125,-8.887500762939453,48.67500305175781,33.91875076293945
1770950687810196500,1.741196533203125,-9.131250381469727,48.431251525878906,33.712501525878906
1770950687820196600,1.751196533203125,-8.943750381469727,48.39375305175781,33.431251525878906
1770950687830196500,1.761196533203125,-8.96250057220459,48.41250228881836,33.03750228881836
1770950687840196600,1.771196533203125,-9.262500762939453,48.60000228881836,32.53125
1770950687850196500,1.781196533203125,-9.131250381469727,48.656253814697266,31.89375114440918
1770950687860196600,1.791196533203125,-8.90625,48.937503814697266,31.51875114440918
1770950687870196500,1.801196533203125,-8.981250762939453,49.05000305175781,31.125001907348633
1770950687880196600,1.811196533203125,-9.1875,49.38750076293945,30.993751525878906
1770950687890196500,1.821196533203125,-9,49.76250076293945,30.993751525878906
1770950687900196600,1.831196533203125,-9.33750057220459,49.743751525878906,30.656251907348633
1770950687910196500,1.841196533203125,-9.206250190734863,49.98750305175781,30.562501907348633
1770950687920196600,1.851196533203125,-8.831250190734863,50.04375076293945,30.225000381469727
1770950687930196500,1.861196533203125,-8.925000190734863,50.17500305175781,30.243751525878906
1770950687940196600,1.871196533203125,-8.943750381469727,50.062503814697266,29.943750381469727
1770950687950196500,1.881196533203125,-9,50.118751525878906,29.700000762939453
1770950687960196600,1.891196533203125,-9,50.025001525878906,29.606250762939453
1770950687970196500,1.901196533203125,-9.28125,49.968753814697266,29.156251907348633
1770950687980196600,1.911196533203125,-8.90625,50.250003814697266,29.08125114440918
1770950687990196500,1.921196533203125,-9.037500381469727,50.156253814697266,28.556251525878906
1770950688000196600,1.931196533203125,-9.28125,50.17500305175781,28.537500381469727
1770950688010196500,1.941196533203125,-9.206250190734863,50.36250305175781,28.256250381469727
1770950688020196600,1.951196533203125,-8.8125,50.400001525878906,27.825000762939453
1770950688030196500,1.961196533203125,-8.793750762939453,50.56875228881836,27.562501907348633
1770950688040196600,1.971196533203125,-8.418750762939453,50.625003814697266,27.243751525878906
1770950688050196500,1.981196533203125,-8.30625057220459,50.718753814697266,26.868751525878906
1770950688060196600,1.991196533203125,-8.25,50.55000305175781,26.45625114440918
1770950688070196500,2.001196533203125,-7.800000190734863,50.45625305175781,26.231250762939453
1770950688080196600,2.011196533203125,-7.387500286102295,50.51250076293945,25.462501525878906
1770950688090196500,2.021196533203125,-7.162500381469727,50.41875076293945,25.031251907348633
1770950688100196600,2.031196533203125,-7.181250095367432,50.41875076293945,24.58125114440918
1770950688110196500,2.041196533203125,-6.956250190734863,50.17500305175781,24.262500762939453
1770950688120196600,2.051196533203125,-6.881250381469727,50.17500305175781,23.568750381469727
1770950688130196500,2.061196533203125,-6.562500476837158,49.91250228881836,23.287500381469727
1770950688140196600,2.071196533203125,-6.825000286102295,49.98750305175781,22.96875
1770950688150196500,2.081196533203125,-7.031250476837158,50.04375076293945,22.70625114440918
1770950688160196600,2.091196533203125,-7.312500476837158,50.04375076293945,22.818750381469727
1770950688170196500,2.101196533203125,-7.762500286102295,49.931251525878906,22.78125
1770950688180196600,2.111196533203125,-8.287500381469727,50.025001525878906,22.762500762939453
1770950688190196500,2.121196533203125,-8.625,50.400001525878906,22.78125
1770950688200196600,2.131196533203125,-9.037500381469727,50.32500076293945,22.837501525878906
1770950688210196500,2.141196533203125,-9.46875,50.587501525878906,22.875
1770950688220196600,2.151196533203125,-9.412500381469727,50.437503814697266,23.006250381469727
1770950688230196500,2.161196533203125,-9.825000762939453,50.212501525878906,22.837501525878906
1770950688240196600,2.171196533203125,-9.881250381469727,49.837501525878906,22.40625
1770950688250196500,2.181196533203125,-10.106250762939453,49.781253814697266,21.86250114440918
1770950688260196600,2.191196533203125,-9.918750762939453,49.57500076293945,21.48750114440918
1770950688270196500,2.201196533203125,-9.80625057220459,49.087501525878906,20.868751525878906
1770950688280196600,2.211196533203125,-9.84375,48.95625305175781,20.381250381469727
1770950688290196500,2.221196533203125,-9.956250190734863,48.50625228881836,19.575000762939453
1770950688300196600,2.231196533203125,-10.21875,48.50625228881836,19.068750381469727
1770950688310196500,2.241196533203125,-10.08750057220459,48.750003814697266,18.48750114440918
1770950688320196600,2.251196533203125,-10.200000762939453,48.88125228881836,18
1770950688330196500,2.261196533203125,-9.9375,48.843753814697266,17.775001525878906
1770950688340196600,2.271196533203125,-10.143750190734863,48.937503814697266,17.418750762939453
1770950688350196500,2.281196533203125,-10.537500381469727,49.181251525878906,17.8125
1770950688360196600,2.291196533203125,-10.818750381469727,48.900001525878906,17.8125
1770950688370196500,2.301196533203125,-10.55625057220459,48.78750228881836,17.962501525878906
1770950688380196600,2.311196533203125,-10.425000190734863,48.63750076293945,17.73750114440918
1770950688390196500,2.321196533203125,-10.425000190734863,48.243751525878906,17.775001525878906
1770950688400196600,2.331196533203125,-10.46250057220459,47.88750076293945,17.962501525878906
1770950688410196500,2.341196533203125,-10.46250057220459,47.51250076293945,18
1770950688420196600,2.351196533203125,-10.46250057220459,47.26875305175781,18.20625114440918
1770950688430196500,2.361196533203125,-10.08750057220459,46.80000305175781,17.756250381469727
1770950688440196600,2.371196533203125,-9.84375,46.72500228881836,17.662500381469727
1770950688450196500,2.381196533203125,-9.90000057220459,46.462501525878906,17.73750114440918
1770950688460196600,2.391196533203125,-10.125,46.16250228881836,17.850000381469727
1770950688470196500,2.401196533203125,-10.36875057220459,45.78750228881836,17.92500114440918
1770950688480196600,2.411196533203125,-10.46250057220459,45.5625,18.056251525878906
1770950688490196500,2.421196533203125,-10.387500762939453,45.35625076293945,18.150001525878906
1770950688500196600,2.431196533203125,-10.46250057220459,44.90625,18.262500762939453
1770950688510196500,2.441196533203125,-10.46250057220459,44.36250305175781,18.356250762939453
1770950688520196600,2.451196533203125,-10.6875,43.81875228881836,18.243751525878906
1770950688530196500,2.461196533203125,-10.762500762939453,43.5,18.543750762939453
1770950688540196600,2.471196533203125,-10.668750762939453,43.20000076293945,18.65625
1770950688550196500,2.481196533203125,-10.6875,42.76875305175781,18.95625114440918
1770950688560196600,2.491196533203125,-10.78125,42.09375,19.293750762939453
1770950688570196500,2.501196533203125,-11.175000190734863,41.38125228881836,19.70625114440918
1770950688580196600,2.511196533203125,-11.100000381469727,40.63125228881836,19.912500381469727
1770950688590196500,2.521196533203125,-11.268750190734863,40.20000076293945,20.100000381469727
1770950688600196600,2.531196533203125,-11.02500057220459,39.54375076293945,20.325000762939453
1770950688610196500,2.541196533203125,-11.175000190734863,38.73750305175781,20.100000381469727
1770950688620196600,2.551196533203125,-11.137500762939453,37.70625305175781,20.26875114440918
1770950688630196500,2.561196533203125,-10.987500190734863,36.9375,20.25
1770950688640196600,2.571196533203125,-11.081250190734863,36.39375305175781,20.231250762939453
1770950688650196500,2.581196533203125,-11.193750381469727,35.75625228881836,20.137500762939453
1770950688660196600,2.591196533203125,-11.25,35.08125305175781,20.006250381469727
1770950688670196500,2.601196533203125,-11.362500190734863,34.53750228881836,19.98750114440918
1770950688680196600,2.611196533203125,-11.475000381469727,34.25625228881836,20.381250381469727
1770950688690196500,2.621196533203125,-11.475000381469727,33.91875076293945,20.681251525878906
1770950688700196600,2.631196533203125,-11.77500057220459,33.69375228881836,21
1770950688710196500,2.641196533203125,-12.093750953674316,33.46875,21.506250381469727
1770950688720196600,2.651196533203125,-12.262500762939453,33.243751525878906,22.03125
1770950688730196500,2.661196533203125,-12.112500190734863,33.07500076293945,21.84375
1770950688740196600,2.671196533203125,-12.375000953674316,32.962501525878906,22.03125
1770950688750196500,2.681196533203125,-12.450000762939453,32.71875,22.087501525878906
1770950688760196600,2.691196533203125,-12.675000190734863,32.38125228881836,22.087501525878906
1770950688780196600,2.711196533203125,-12.675000190734863,31.743751525878906,21.225000381469727
1770950688790196500,2.721196533203125,-12.581250190734863,31.743751525878906,21.131250381469727
1770950688800196600,2.731196533203125,-12.450000762939453,31.462501525878906,21.037500381469727
1770950688810196500,2.741196533203125,-12.468750953674316,31.462501525878906,21.243751525878906
1770950688820196600,2.751196533203125,-12.656250953674316,31.575000762939453,21.806251525878906
1770950688830196500,2.761196533203125,-13.106250762939453,31.668750762939453,22.181251525878906
1770950688840196600,2.771196533203125,-13.387500762939453,31.837501525878906,22.443750381469727
1770950688850196500,2.781196533203125,-13.65000057220459,32.04375076293945,22.96875
1770950688860196600,2.791196533203125,-14.175000190734863,32.587501525878906,23.73750114440918
1770950688870196500,2.801196533203125,-14.850000381469727,32.625,24.037500381469727
1770950688880196600,2.811196533203125,-15.018750190734863,32.92500305175781,24.187501907348633
1770950688890196500,2.821196533203125,-15.318750381469727,33.07500076293945,24.450000762939453
1770950688900196600,2.831196533203125,-15.487500190734863,33.1875,24.187501907348633
1770950688910196500,2.841196533203125,-15.412500381469727,33.375,24.356250762939453
1770950688920196600,2.851196533203125,-15.187500953674316,33.48750305175781,24.150001525878906
1770950688930196500,2.861196533203125,-15.075000762939453,33.50625228881836,23.90625
1770950688940196600,2.871196533203125,-14.77500057220459,33.30000305175781,23.92500114440918
1770950688950196500,2.881196533203125,-14.381250381469727,33.375,23.83125114440918
1770950688960196600,2.891196533203125,-14.362500190734863,33.337501525878906,23.493751525878906
1770950688970196500,2.901196533203125,-14.268750190734863,33.31875228881836,23.45625114440918
1770950688980196600,2.911196533203125,-14.30625057220459,33.375,23.756250381469727
1770950688990196500,2.921196533203125,-14.137500762939453,33.525001525878906,23.73750114440918
1770950689000196600,2.931196533203125,-14.250000953674316,33.78750228881836,23.8125
1770950689010196500,2.941196533203125,-14.250000953674316,34.21875,23.887500762939453
1770950689020196600,2.951196533203125,-14.550000190734863,34.6875,23.793750762939453
1770950689030196500,2.961196533203125,-14.850000381469727,34.96875,23.700000762939453
1770950689040196600,2.971196533203125,-14.887500762939453,35.41875076293945,23.587501525878906
1770950689050196500,2.981196533203125,-15.15000057220459,36.01875305175781,23.83125114440918
1770950689060196600,2.991196533203125,-14.96250057220459,36.58125305175781,23.73750114440918
1770950689070196500,3.001196533203125,-15.093750953674316,36.9375,23.418750762939453
1770950689080196600,3.011196533203125,-15.225000381469727,37.125,23.193750381469727
1770950689090196500,3.021196533203125,-15.543750762939453,37.53750228881836,23.137500762939453
1770950689100196600,3.031196533203125,-15.300000190734863,37.66875076293945,22.89375114440918
1770950689110196500,3.041196533203125,-14.981250762939453,37.837501525878906,22.537500381469727
1770950689120196600,3.051196533203125,-14.925000190734863,37.95000076293945,22.481250762939453
1770950689130196500,3.061196533203125,-14.643750190734863,37.6875,21.806251525878906
1770950689140196600,3.071196533203125,-14.68125057220459,37.556251525878906,21.30000114440918
1770950689150196500,3.081196533203125,-14.40000057220459,37.368751525878906,21.01875114440918
1770950689160196600,3.091196533203125,-13.818750381469727,37.25625228881836,21.01875114440918
1770950689170196500,3.101196533203125,-13.331250190734863,36.75,20.625
1770950689180196600,3.111196533203125,-12.918750762939453,36.5625,20.287500381469727
1770950689190196500,3.121196533203125,-12.61875057220459,36.28125,20.100000381469727
1770950689200196600,3.131196533203125,-12.112500190734863,35.75625228881836,19.875
1770950689210196500,3.141196533203125,-11.8125,35.36250305175781,19.59375
1770950689220196600,3.151196533203125,-11.381250381469727,34.95000076293945,19.293750762939453
1770950689230196500,3.161196533203125,-11.006250381469727,34.66875076293945,19.14375114440918
1770950689240196600,3.171196533203125,-11.02500057220459,34.38750076293945,18.86250114440918
1770950689250196500,3.181196533203125,-10.65000057220459,34.06875228881836,18.993751525878906
1770950689260196600,3.191196533203125,-10.725000381469727,33.46875,18.618751525878906
1770950689270196500,3.201196533203125,-10.293750762939453,33.07500076293945,18.356250762939453
1770950689280196600,3.211196533203125,-9.84375,32.88750076293945,18.075000762939453
1770950689290196500,3.221196533203125,-9.46875,32.41875076293945,17.775001525878906
1770950689300196600,3.231196533203125,-8.943750381469727,32.025001525878906,17.36250114440918
1770950689310196500,3.241196533203125,-8.625,31.556251525878906,17.043750762939453
1770950689320196600,3.251196533203125,-8.21250057220459,30.881250381469727,16.556251525878906
1770950689330196500,3.261196533203125,-8.0625,30.412500381469727,15.825000762939453
1770950689340196600,3.271196533203125,-7.293750286102295,30.131250381469727,15.675000190734863
1770950689350196500,3.281196533203125,-7.162500381469727,30.000001907348633,15.787500381469727
1770950689360196600,3.291196533203125,-7.162500381469727,29.756250381469727,15.862500190734863
1770950689370196500,3.301196533203125,-7.068750381469727,29.493751525878906,16.256250381469727
1770950689380196600,3.311196533203125,-6.993750095367432,29.325000762939453,16.59375
1770950689390196500,3.321196533203125,-6.825000286102295,29.17500114440918,16.80000114440918
1770950689400196600,3.331196533203125,-6.900000095367432,29.17500114440918,17.325000762939453
1770950689410196500,3.341196533203125,-6.768750190734863,29.043750762939453,17.92500114440918
1770950689420196600,3.351196533203125,-6.993750095367432,28.98750114440918,18.431251525878906
1770950689430196500,3.361196533203125,-7.031250476837158,28.650001525878906,18.450000762939453
1770950689440196600,3.371196533203125,-7.237500190734863,28.443750381469727,18.86250114440918
1770950689450196500,3.381196533203125,-7.012500286102295,28.275001525878906,19.012500762939453
1770950689460196600,3.391196533203125,-6.956250190734863,27.787500381469727,18.993751525878906
1770950689470196500,3.401196533203125,-7.087500095367432,27.48750114440918,19.181251525878906
1770950689480196600,3.411196533203125,-6.693750381469727,27.375001907348633,19.443750381469727
1770950689490196500,3.421196533203125,-6.487500190734863,27.150001525878906,19.556251525878906
1770950689500196600,3.431196533203125,-6.281250476837158,26.73750114440918,19.42500114440918
1770950689510196500,3.441196533203125,-5.775000095367432,26.381250381469727,19.462501525878906
1770950689520196600,3.451196533203125,-5.193750381469727,26.006250381469727,19.275001525878906
1770950689530196500,3.461196533203125,-5.043750286102295,26.062501907348633,19.350000381469727
1770950689540196600,3.471196533203125,-4.912500381469727,26.006250381469727,19.818750381469727
1770950689550196500,3.481196533203125,-4.425000190734863,25.781251907348633,20.006250381469727
1770950689560196600,3.491196533203125,-4.237500190734863,25.368751525878906,20.043750762939453
1770950689570196500,3.501196533203125,-3.937500238418579,25.162500381469727,19.98750114440918
1770950689580196600,3.511196533203125,-3.7875001430511475,25.068750381469727,20.418750762939453
1770950689590196500,3.521196533203125,-3.356250047683716,24.918750762939453,20.681251525878906
1770950689600196600,3.531196533203125,-3.187500238418579,24.712501525878906,21.037500381469727
1770950689610196500,3.541196533203125,-3.1125001907348633,24.243751525878906,21.11250114440918
1770950689620196600,3.551196533203125,-2.5875000953674316,23.83125114440918,21.01875114440918
1770950689630196500,3.561196533203125,-2.418750047683716,23.381250381469727,21.150001525878906
1770950689640196600,3.571196533203125,-1.9312500953674316,23.0625,20.962501525878906
1770950689650196500,3.581196533203125,-1.5937501192092896,22.387500762939453,21.11250114440918
1770950689660196600,3.591196533203125,-0.862500011920929,21.84375,21.262500762939453
1770950689670196500,3.601196533203125,-0.8250000476837158,21.356250762939453,21.412500381469727
1770950689680196600,3.611196533203125,-0.5062500238418579,20.793750762939453,21.450000762939453
1770950689690196500,3.621196533203125,0.01875000074505806,20.325000762939453,21.806251525878906
1770950689700196600,3.631196533203125,0,19.762500762939453,22.106250762939453
1770950689710196500,3.641196533203125,0.15000000596046448,19.537500381469727,22.5
1770950689720196600,3.651196533203125,-0.16875000298023224,19.012500762939453,22.96875
1770950689730196500,3.661196533203125,-0.28125,18.712501525878906,23.587501525878906
1770950689740196600,3.671196533203125,-0.75,18.450000762939453,23.90625
1770950689750196500,3.681196533203125,-0.9000000357627869,18.131250381469727,24.375001907348633
1770950689760196600,3.691196533203125,-1.0500000715255737,17.8125,24.843751907348633
1770950689770196500,3.701196533203125,-1.1437500715255737,17.64375114440918,25.14375114440918
1770950689780196600,3.711196533203125,-1.03125,17.756250381469727,25.481250762939453
1770950689790196500,3.721196533203125,-1.0125000476837158,17.625,25.537500381469727
1770950689800196600,3.731196533203125,-0.8437500596046448,17.493751525878906,25.950000762939453
1770950689810196500,3.741196533203125,-0.9750000238418579,17.64375114440918,25.931251525878906
1770950689820196600,3.751196533203125,-0.7125000357627869,17.8125,25.98750114440918
1770950689830196500,3.761196533203125,-0.75,18.131250381469727,26.231250762939453
1770950689840196600,3.771196533203125,-0.9375000596046448,18.356250762939453,26.45625114440918
1770950689850196500,3.781196533203125,-1.4250000715255737,18.731250762939453,26.718751907348633
1770950689860196600,3.791196533203125,-1.725000023841858,18.86250114440918,26.73750114440918
1770950689870196500,3.801196533203125,-1.8750001192092896,19.387500762939453,26.868751525878906
1770950689880196600,3.811196533203125,-1.9875000715255737,19.931251525878906,26.26875114440918
1770950689890196500,3.821196533203125,-2.2875001430511475,20.606250762939453,26.231250762939453
1770950689900196600,3.831196533203125,-2.700000047683716,21.225000381469727,26.17500114440918
1770950689910196500,3.841196533203125,-3,21.881250381469727,25.668750762939453
1770950689920196600,3.851196533203125,-3.468750238418579,22.80000114440918,25.350000381469727
1770950689930196500,3.861196533203125,-3.6937501430511475,23.64375114440918,25.012500762939453
1770950689940196600,3.871196533203125,-4.3125,24.48750114440918,25.068750381469727
1770950689950196500,3.881196533203125,-5.15625,25.23750114440918,24.95625114440918
1770950689960196600,3.891196533203125,-5.962500095367432,26.062501907348633,25.181251525878906
1770950689970196500,3.901196533203125,-6.375000476837158,27.187501907348633,25.031251907348633
1770950689980196600,3.911196533203125,-7.106250286102295,28.218751907348633,24.506250381469727
1770950689990196500,3.921196533203125,-7.893750190734863,29.45625114440918,24.225000381469727
1770950690000196600,3.931196533203125,-8.418750762939453,30.600000381469727,23.625
1770950690010196500,3.941196533203125,-8.8125,31.80000114440918,22.387500762939453
1770950690020196600,3.951196533203125,-9.5625,33.39375305175781,21.618751525878906
1770950690030196500,3.961196533203125,-10.537500381469727,35.025001525878906,21.46875
1770950690040196600,3.971196533203125,-11.381250381469727,37.05000305175781,21.48750114440918
1770950690050196500,3.981196533203125,-12.731250762939453,38.775001525878906,21.76875114440918
1770950690060196600,3.991196533203125,-13.237500190734863,40.05000305175781,21.375
1770950690070196500,4.001196533203125,-13.987500190734863,41.32500076293945,20.606250762939453
1770950690080196600,4.011196533203125,-14.943750381469727,42.618751525878906,20.08125114440918
1770950690090196500,4.021196533203125,-15.90000057220459,43.76250076293945,21.318750381469727
1770950690100196600,4.031196533203125,-16.650001525878906,44.41875076293945,22.575000762939453
1770950690110196500,4.041196533203125,-16.78125,44.90625,23.34375
1770950690120196600,4.051196533203125,-17.306251525878906,44.85000228881836,24.01875114440918
1770950690130196500,4.061196533203125,-17.137500762939453,44.587501525878906,24.375001907348633
1770950690140196600,4.071196533203125,-17.8125,44.73750305175781,26.025001525878906
1770950690150196500,4.081196533203125,-18.131250381469727,44.41875076293945,27.787500381469727
1770950690160196600,4.091196533203125,-18.450000762939453,44.400001525878906,29.756250381469727
1770950690170196500,4.101196533203125,-18.337501525878906,43.743751525878906,30.356250762939453
1770950690180196600,4.111196533203125,-18.28125,43.48125076293945,30.76875114440918
1770950690190196500,4.121196533203125,-18.618751525878906,43.29375076293945,31.61250114440918
1770950690200196600,4.131196533203125,-18.806251525878906,43.40625,32.8125
1770950690210196500,4.141196533203125,-19.537500381469727,43.51875305175781,34.181251525878906
1770950690220196600,4.151196533203125,-19.837501525878906,43.59375,35.025001525878906
1770950690230196500,4.161196533203125,-20.25,43.875,36.35625076293945
1770950690240196600,4.171196533203125,-20.45625114440918,43.743751525878906,37.48125076293945
1770950690250196500,4.181196533203125,-21,44.25,38.36250305175781
1770950690260196600,4.191196533203125,-21.1875,44.212501525878906,38.98125076293945
1770950690270196500,4.201196533203125,-21.168750762939453,43.95000076293945,39.28125
1770950690280196600,4.211196533203125,-21.262500762939453,43.70625305175781,39.431251525878906
1770950690290196500,4.221196533203125,-20.92500114440918,43.23750305175781,39.35625076293945
1770950690300196600,4.231196533203125,-20.962501525878906,42.712501525878906,39.78750228881836
1770950690310196500,4.241196533203125,-21.131250381469727,42.1875,40.21875
1770950690320196600,4.251196533203125,-20.73750114440918,41.94375228881836,40.368751525878906
1770950690330196500,4.261196533203125,-21.09375,41.79375076293945,40.95000076293945
1770950690340196600,4.271196533203125,-21.39375114440918,42.07500076293945,41.4375
1770950690350196500,4.281196533203125,-21.600000381469727,42.31875228881836,41.41875076293945
1770950690360196600,4.291196533203125,-22.012500762939453,42.63750076293945,41.26875305175781
1770950690370196500,4.301196533203125,-22.256250381469727,43.06875228881836,40.81875228881836
1770950690380196600,4.311196533203125,-21.975000381469727,43.837501525878906,39.95625305175781
1770950690390196500,4.321196533203125,-21.65625,44.64375305175781,38.775001525878906
1770950690400196600,4.331196533203125,-21.993751525878906,45.46875,37.61250305175781
1770950690410196500,4.341196533203125,-21.5625,46.01250076293945,36.03750228881836
1770950690420196600,4.351196533203125,-21.09375,46.556251525878906,34.125
1770950690430196500,4.361196533203125,-20.981250762939453,46.931251525878906,32.79375076293945
1770950690440196600,4.371196533203125,-20.71875,47.28750228881836,31.012500762939453
1770950690460196600,4.391196533203125,-21.46875,48.375003814697266,29.325000762939453
1770950690470196500,4.401196533203125,-21.525001525878906,48.750003814697266,28.556251525878906
1770950690480196600,4.411196533203125,-21.637500762939453,48.900001525878906,27.86250114440918
1770950690490196500,4.421196533203125,-22.106250762939453,49.087501525878906,27.11250114440918
1770950690500196600,4.431196533203125,-22.3125,49.368751525878906,26.006250381469727
1770950690510196500,4.441196533203125,-22.350000381469727,49.875003814697266,25.387500762939453
1770950690520196600,4.451196533203125,-22.350000381469727,50.306251525878906,25.218751907348633
1770950690530196500,4.461196533203125,-22.481250762939453,51.056251525878906,24.67500114440918
1770950690540196600,4.471196533203125,-22.368751525878906,51.88125228881836,23.943750381469727
1770950690550196500,4.481196533203125,-22.931251525878906,52.95000076293945,23.45625114440918
1770950690560196600,4.491196533203125,-23.36250114440918,54.281253814697266,23.662500381469727
1770950690570196500,4.501196533203125,-23.36250114440918,55.650001525878906,24.056251525878906
1770950690580196600,4.511196533203125,-23.887500762939453,57.337501525878906,25.256250381469727
1770950690590196500,4.521196533203125,-24.637500762939453,59.250003814697266,26.512500762939453
1770950690600196600,4.531196533203125,-25.218751907348633,61.20000076293945,27.543750762939453
1770950690610196500,4.541196533203125,-25.537500381469727,62.681251525878906,28.762500762939453
1770950690620196600,4.551196533203125,-26.043750762939453,64.125,30.506250381469727
1770950690630196500,4.561196533203125,-26.325000762939453,65.4375,32.19375228881836
1770950690640196600,4.571196533203125,-26.64375114440918,66.48750305175781,33.26250076293945
1770950690650196500,4.581196533203125,-27.225000381469727,67.6875,34.80000305175781
1770950690660196600,4.591196533203125,-27.618751525878906,68.4375,36.26250076293945
1770950690670196500,4.601196533203125,-27.86250114440918,69.1875,37.38750076293945
1770950690680196600,4.611196533203125,-28.106250762939453,69.46875,38.868751525878906
1770950690690196500,4.621196533203125,-28.14375114440918,69.82500457763672,40.16250228881836
1770950690700196600,4.631196533203125,-27.975000381469727,70.125,41.71875
1770950690710196500,4.641196533203125,-28.218751907348633,70.48125457763672,43.650001525878906
1770950690720196600,4.651196533203125,-28.012500762939453,70.81875610351562,45.58125305175781
1770950690730196500,4.661196533203125,-27.637500762939453,70.875,46.875
1770950690740196600,4.671196533203125,-27.48750114440918,70.66875457763672,48.95625305175781
1770950690760196600,4.691196533203125,-26.92500114440918,70.16250610351562,52.66875076293945
1770950690770196500,4.701196533203125,-26.625001907348633,70.01250457763672,54.39375305175781
1770950690780196600,4.711196533203125,-26.512500762939453,69.50625610351562,56.13750076293945
1770950690790196500,4.721196533203125,-25.556251525878906,68.94375610351562,57.45000076293945
1770950690800196600,4.731196533203125,-25.087501525878906,68.08125305175781,59.118751525878906
1770950690810196500,4.741196533203125,-24.86250114440918,67.20000457763672,61.48125076293945
1770950690820196600,4.751196533203125,-24.225000381469727,66.07500457763672,62.79375076293945
1770950690830196500,4.761196533203125,-23.73750114440918,64.57500457763672,64.38750457763672
1770950690840196600,4.771196533203125,-23.15625,63.50625228881836,65.73750305175781
1770950690850196500,4.781196533203125,-22.61250114440918,61.81875228881836,66.9000015258789
1770950690860196600,4.791196533203125,-22.256250381469727,60.281253814697266,67.42500305175781
1770950690870196500,4.801196533203125,-22.256250381469727,58.76250076293945,68.34375
1770950690880196600,4.811196533203125,-21.825000762939453,57.41250228881836,68.45625305175781
1770950690890196500,4.821196533203125,-21.900001525878906,55.85625076293945,68.19375610351562
1770950690900196600,4.831196533203125,-21.75,54.69375228881836,68.28750610351562
1770950690910196500,4.841196533203125,-22.012500762939453,53.531253814697266,68.66250610351562
1770950690920196600,4.851196533203125,-21.787500381469727,52.44375228881836,68.51250457763672
1770950690930196500,4.861196533203125,-21.881250381469727,51.86250305175781,68.38125610351562
1770950690940196600,4.871196533203125,-21.918750762939453,50.962501525878906,68.73750305175781
1770950690950196500,4.881196533203125,-21.787500381469727,49.89375305175781,68.7750015258789
1770950690960196600,4.891196533203125,-21.9375,49.181251525878906,69.3375015258789
1770950690970196500,4.901196533203125,-21.412500381469727,48.937503814697266,69.67500305175781
1770950690980196600,4.911196533203125,-21.28125,48.82500076293945,69.69375610351562
1770950690990196500,4.921196533203125,-20.850000381469727,49.14375305175781,69.4312515258789
1770950691000196600,4.931196533203125,-21.1875,49.462501525878906,69.97500610351562
1770950691010196500,4.941196533203125,-21.318750381469727,50.062503814697266,70.66875457763672
1770950691020196600,4.951196533203125,-21.30000114440918,50.868751525878906,70.96875
1770950691030196500,4.961196533203125,-21.431251525878906,52.06875228881836,71.00625610351562
1770950691040196600,4.971196533203125,-21.48750114440918,52.98750305175781,70.91250610351562
1770950691050196500,4.981196533203125,-21.731250762939453,54.000003814697266,70.81875610351562
1770950691060196600,4.991196533203125,-21.806251525878906,55.14375305175781,71.25
1770950691070196500,5.001196533203125,-21.86250114440918,56.26875305175781,71.19375610351562
1770950691080196600,5.011196533203125,-21.65625,57.13125228881836,70.53750610351562
1770950691090196500,5.021196533203125,-21.5625,58.087501525878906,70.03125
1770950691100196600,5.031196533203125,-21.243751525878906,59.00625228881836,69.67500305175781
1770950691110196500,5.041196533203125,-20.887500762939453,59.98125076293945,69.3375015258789
1770950691120196600,5.051196533203125,-20.64375114440918,60.82500076293945,68.8125
1770950691130196500,5.061196533203125,-20.45625114440918,61.44375228881836,68.38125610351562
1770950691140196600,5.071196533203125,-20.193750381469727,61.91250228881836,67.51875305175781
1770950691150196500,5.081196533203125,-19.762500762939453,62.23125076293945,66.95625305175781
1770950691160196600,5.091196533203125,-19.3125,62.45625305175781,66.07500457763672
1770950691170196500,5.101196533203125,-18.75,62.32500076293945,65.17500305175781
1770950691180196600,5.111196533203125,-18.318750381469727,62.41875076293945,64.3125
1770950691190196500,5.121196533203125,-18.01875114440918,62.10000228881836,63.35625076293945
1770950691200196600,5.131196533203125,-17.83125114440918,61.80000305175781,62.587501525878906
1770950691210196500,5.141196533203125,-17.4375,61.35000228881836,61.837501525878906
1770950691220196600,5.151196533203125,-17.08125114440918,60.900001525878906,61.368751525878906
1770950691230196500,5.161196533203125,-16.96875,60.31875228881836,60.97500228881836
1770950691240196600,5.171196533203125,-16.631250381469727,59.55000305175781,60.562503814697266
1770950691250196500,5.181196533203125,-16.256250381469727,58.61250305175781,60.30000305175781
1770950691260196600,5.191196533203125,-16.200000762939453,57.60000228881836,60.11250305175781
1770950691270196500,5.201196533203125,-15.975000381469727,57.01875305175781,60.20625305175781
1770950691280196600,5.211196533203125,-15.656250953674316,56.28750228881836,60.375003814697266
1770950691290196500,5.221196533203125,-15.881250381469727,55.837501525878906,61.16250228881836
1770950691300196600,5.231196533203125,-15.825000762939453,54.95625305175781,61.98750305175781
1770950691310196500,5.241196533203125,-15.61875057220459,54.468753814697266,62.85000228881836
1770950691320196600,5.251196533203125,-15.768750190734863,54.150001525878906,64.10625457763672
1770950691330196500,5.261196533203125,-16.068750381469727,53.868751525878906,65.47500610351562
1770950691340196600,5.271196533203125,-16.387500762939453,53.531253814697266,66.88125610351562
1770950691350196500,5.281196533203125,-16.6875,53.13750076293945,68.5875015258789
1770950691360196600,5.291196533203125,-16.668750762939453,52.875003814697266,70.2750015258789
1770950691370196500,5.301196533203125,-16.068750381469727,52.14375305175781,71.32500457763672
1770950691380196600,5.311196533203125,-16.293750762939453,51.806251525878906,72.39375305175781
1770950691390196500,5.321196533203125,-16.368751525878906,51.26250076293945,73.42500305175781
1770950691400196600,5.331196533203125,-15.975000381469727,50.36250305175781,73.80000305175781
1770950691410196500,5.341196533203125,-15.581250190734863,49.743751525878906,73.8375015258789
1770950691420196600,5.351196533203125,-15.318750381469727,48.806251525878906,73.85625457763672
1770950691430196500,5.361196533203125,-14.625000953674316,47.47500228881836,73.0875015258789
1770950691440196600,5.371196533203125,-14.550000190734863,46.51875305175781,72.30000305175781
1770950691450196500,5.381196533203125,-14.531250953674316,45.73125076293945,71.79375457763672
1770950691460196600,5.391196533203125,-14.156250953674316,44.98125076293945,71.15625
1770950691470196500,5.401196533203125,-13.893750190734863,44.36250305175781,70.44375610351562
1770950691480196600,5.411196533203125,-14.268750190734863,44.23125076293945,70.38750457763672
1770950691490196500,5.421196533203125,-14.625000953674316,44.17500305175781,70.59375
1770950691500196600,5.431196533203125,-14.58750057220459,44.212501525878906,70.70625305175781
1770950691510196500,5.441196533203125,-15.000000953674316,44.4375,71.36250305175781
1770950691520196600,5.451196533203125,-15.037500381469727,43.96875,71.47500610351562
1770950691530196500,5.461196533203125,-14.68125057220459,43.57500076293945,71.34375
1770950691540196600,5.471196533203125,-14.043750762939453,42.75,70.875
1770950691550196500,5.481196533203125,-13.36875057220459,41.775001525878906,70.5562515258789
1770950691560196600,5.491196533203125,-12.206250190734863,40.53750228881836,70.25625610351562
1770950691570196500,5.501196533203125,-11.02500057220459,39.07500076293945,69.41250610351562
1770950691580196600,5.511196533203125,-9.43125057220459,37.42500305175781,68.60625457763672
1770950691590196500,5.521196533203125,-7.725000381469727,35.56875228881836,67.5562515258789
1770950691600196600,5.531196533203125,-5.90625,33.78750228881836,67.25625610351562
1770950691610196500,5.541196533203125,-4.40625,32.306251525878906,67.20000457763672
1770950691620196600,5.551196533203125,-3,30.95625114440918,67.81875610351562
1770950691630196500,5.561196533203125,-1.21875,29.718751907348633,68.47500610351562
1770950691640196600,5.571196533203125,0.26250001788139343,28.650001525878906,69.0562515258789
1770950691650196500,5.581196533203125,1.8375000953674316,27.67500114440918,69.86250305175781
1770950691660196600,5.591196533203125,2.7562501430511475,27.150001525878906,70.95000457763672
1770950691670196500,5.601196533203125,3.8812501430511475,26.681251525878906,71.85000610351562
1770950691680196600,5.611196533203125,5.043750286102295,26.681251525878906,72.6187515258789
1770950691690196500,5.621196533203125,6.075000286102295,26.400001525878906,73.21875
1770950691700196600,5.631196533203125,7.087500095367432,26.568750381469727,73.20000457763672
1770950691710196500,5.641196533203125,7.818750381469727,26.418750762939453,72.84375
1770950691720196600,5.651196533203125,8.96250057220459,26.512500762939453,72.46875
1770950691730196500,5.661196533203125,9.9375,26.193750381469727,71.64375305175781
1770950691740196600,5.671196533203125,11.30625057220459,25.631250381469727,70.5562515258789
1770950691750196500,5.681196533203125,12.562500953674316,25.312501907348633,69.50625610351562
1770950691760196600,5.691196533203125,13.18125057220459,24.993751525878906,68.51250457763672
1770950691770196500,5.701196533203125,14.062500953674316,24.67500114440918,67.21875
1770950691780196600,5.711196533203125,15.131250381469727,24.431251525878906,66.28125
1770950691790196500,5.721196533203125,16.05000114440918,24.225000381469727,65.45625305175781
1770950691800196600,5.731196533203125,16.931251525878906,23.775001525878906,64.1812515258789
1770950691810196500,5.741196533203125,18.09375,23.681251525878906,63.806251525878906
1770950691820196600,5.751196533203125,18.731250762939453,23.92500114440918,63.45000076293945
1770950691830196500,5.761196533203125,19.068750381469727,24.075000762939453,63.16875076293945
1770950691840196600,5.771196533203125,20.0625,23.83125114440918,62.681251525878906
1770950691850196500,5.781196533203125,21.075000762939453,23.868751525878906,62.32500076293945
1770950691860196600,5.791196533203125,21.731250762939453,23.700000762939453,62.118751525878906
1770950691870196500,5.801196533203125,22.162500381469727,23.606250762939453,61.76250076293945
1770950691880196600,5.811196533203125,22.293750762939453,23.512500762939453,61.931251525878906
1770950691890196500,5.821196533203125,21.9375,23.53125,61.875003814697266
1770950691900196600,5.831196533203125,21.993751525878906,23.287500381469727,61.63125228881836
1770950691910196500,5.841196533203125,21.975000381469727,23.118751525878906,61.51875305175781
1770950691920196600,5.851196533203125,21.65625,23.475000381469727,61.781253814697266
1770950691930196500,5.861196533203125,20.962501525878906,23.418750762939453,61.968753814697266
1770950691940196600,5.871196533203125,20.231250762939453,23.118751525878906,62.00625228881836
1770950691950196500,5.881196533203125,20.006250381469727,23.231250762939453,62.38125228881836
1770950691960196600,5.891196533203125,20.025001525878906,23.45625114440918,62.587501525878906
1770950691970196500,5.901196533203125,20.53125,23.287500381469727,62.437503814697266
1770950691980196600,5.911196533203125,20.700000762939453,23.45625114440918,62.26875305175781
1770950691990196500,5.921196533203125,21.375,23.55000114440918,61.781253814697266
1770950692000196600,5.931196533203125,22.162500381469727,23.400001525878906,60.82500076293945
1770950692010196500,5.941196533203125,23.287500381469727,23.64375114440918,60.712501525878906
1770950692020196600,5.951196533203125,24.262500762939453,23.92500114440918,60.150001525878906
1770950692030196500,5.961196533203125,24.937501907348633,24.20625114440918,60.093753814697266
1770950692040196600,5.971196533203125,25.481250762939453,24.262500762939453,59.812503814697266
1770950692050196500,5.981196533203125,25.743751525878906,24.58125114440918,59.94375228881836
1770950692060196600,5.991196533203125,26.043750762939453,24.993751525878906,60.50625228881836
1770950692070196500,6.001196533203125,26.250001907348633,25.42500114440918,61.06875228881836
1770950692080196600,6.011196533203125,25.98750114440918,25.98750114440918,61.91250228881836
1770950692090196500,6.021196533203125,25.575000762939453,26.343751907348633,62.10000228881836
1770950692100196600,6.031196533203125,25.443750381469727,26.887500762939453,62.587501525878906
1770950692110196500,6.041196533203125,25.556251525878906,27.187501907348633,62.56875228881836
1770950692120196600,6.051196533203125,25.500001907348633,27.750001907348633,62.681251525878906
1770950692130196500,6.061196533203125,25.312501907348633,28.462501525878906,62.92500305175781
1770950692140196600,6.071196533203125,25.068750381469727,28.668750762939453,62.94375228881836
1770950692150196500,6.081196533203125,24.900001525878906,29.062501907348633,63.562503814697266
1770950692160196600,6.091196533203125,24.993751525878906,29.26875114440918,64.25625610351562
1770950692170196500,6.101196533203125,25.05000114440918,29.45625114440918,65.10000610351562
1770950692180196600,6.111196533203125,24.86250114440918,29.700000762939453,65.7750015258789
1770950692190196500,6.121196533203125,24.825000762939453,29.850000381469727,66.7125015258789
1770950692200196600,6.131196533203125,24.693750381469727,29.850000381469727,67.33125305175781
1770950692210196500,6.141196533203125,24.95625114440918,29.662500381469727,67.6875
1770950692220196600,6.151196533203125,25.106250762939453,29.83125114440918,68.08125305175781
1770950692230196500,6.161196533203125,24.618751525878906,29.83125114440918,68.15625
1770950692240196600,6.171196533203125,24.243751525878906,29.962501525878906,67.91250610351562
1770950692250196500,6.181196533203125,23.8125,30.11250114440918,67.76250457763672
1770950692260196600,6.191196533203125,23.71875,30.281251907348633,67.81875610351562
1770950692270196500,6.201196533203125,23.26875114440918,30.450000762939453,67.5
1770950692280196600,6.211196533203125,23.137500762939453,30.693750381469727,67.42500305175781
1770950692290196500,6.221196533203125,22.818750381469727,30.86250114440918,67.5562515258789
1770950692300196600,6.231196533203125,22.668750762939453,31.087501525878906,67.57500457763672
1770950692310196500,6.241196533203125,22.96875,31.218751907348633,67.44375610351562
1770950692320196600,6.251196533203125,23.25,31.350000381469727,67.40625
1770950692330196500,6.261196533203125,23.381250381469727,31.387500762939453,67.0875015258789
1770950692340196600,6.271196533203125,23.306251525878906,31.51875114440918,66.63750457763672
1770950692360196600,6.291196533203125,23.193750381469727,31.443750381469727,65.53125
1770950692370196500,6.301196533203125,22.856250762939453,31.631250381469727,65.0625
1770950692380196600,6.311196533203125,22.89375114440918,31.650001525878906,64.63125610351562
1770950692390196500,6.321196533203125,22.668750762939453,31.725000381469727,64.125
1770950692400196600,6.331196533203125,22.51875114440918,31.781251907348633,63.48750305175781
1770950692410196500,6.341196533203125,22.42500114440918,31.912500381469727,62.868751525878906
1770950692420196600,6.351196533203125,22.5,31.762500762939453,62.70000076293945
1770950692430196500,6.361196533203125,22.51875114440918,31.98750114440918,62.962501525878906
1770950692440196600,6.371196533203125,22.33125114440918,32.212501525878906,63.41250228881836
1770950692450196500,6.381196533203125,22.631250381469727,32.25,63.750003814697266
1770950692460196600,6.391196533203125,22.368751525878906,32.19375228881836,63.993751525878906
1770950692470196500,6.401196533203125,22.275001525878906,32.36250305175781,64.4625015258789
1770950692480196600,6.411196533203125,22.3125,32.625,65.25
1770950692490196500,6.421196533203125,22.70625114440918,32.587501525878906,65.9625015258789
1770950692500196600,6.431196533203125,22.950000762939453,32.868751525878906,66.39375305175781
1770950692510196500,6.441196533203125,23.193750381469727,32.88750076293945,66.375
1770950692520196600,6.451196533203125,23.793750762939453,32.775001525878906,66.1500015258789
1770950692530196500,6.461196533203125,23.887500762939453,32.73750305175781,65.8687515258789
1770950692540196600,6.471196533203125,24.337501525878906,32.962501525878906,65.41875457763672
1770950692550196500,6.481196533203125,24.881250381469727,33,65.3062515258789
1770950692560196600,6.491196533203125,25.368751525878906,32.90625,64.89375305175781
1770950692570196500,6.501196533203125,25.631250381469727,33.1875,64.66875457763672
1770950692580196600,6.511196533203125,26.306251525878906,33.337501525878906,64.2750015258789
1770950692590196500,6.521196533203125,26.83125114440918,33.20625305175781,64.01250457763672
1770950692600196600,6.531196533203125,27.731250762939453,33.45000076293945,63.337501525878906
1770950692610196500,6.541196533203125,28.61250114440918,33.58125305175781,62.60625076293945
1770950692620196600,6.551196533203125,29.887500762939453,33.806251525878906,62.28750228881836
1770950692630196500,6.561196533203125,30.825000762939453,33.9375,61.368751525878906
1770950692640196600,6.571196533203125,31.968751907348633,34.087501525878906,60.48750305175781
1770950692650196500,6.581196533203125,33.31875228881836,34.48125076293945,59.587501525878906
1770950692660196600,6.591196533203125,34.5,34.650001525878906,58.81875228881836
1770950692670196500,6.601196533203125,35.625,35.19375228881836,57.88125228881836
1770950692680196600,6.611196533203125,36.35625076293945,35.775001525878906,57.48750305175781
1770950692690196500,6.621196533203125,37.368751525878906,36.375,56.83125305175781
1770950692700196600,6.631196533203125,37.96875,36.67500305175781,55.98750305175781
1770950692710196500,6.641196533203125,38.41875076293945,37.21875,55.44375228881836
1770950692720196600,6.651196533203125,38.60625076293945,37.875,55.05000305175781
1770950692730196500,6.661196533203125,38.47500228881836,38.34375,54.618751525878906
1770950692740196600,6.671196533203125,38.28750228881836,39.09375,54.20625305175781
1770950692750196500,6.681196533203125,38.118751525878906,39.78750228881836,53.94375228881836
1770950692760196600,6.691196533203125,37.66875076293945,40.33125305175781,53.493751525878906
1770950692770196500,6.701196533203125,37.48125076293945,40.96875,53.32500076293945
1770950692780196600,6.711196533203125,37.181251525878906,41.73750305175781,52.875003814697266
1770950692790196500,6.721196533203125,37.20000076293945,42.31875228881836,52.593753814697266
1770950692800196600,6.731196533203125,37.125,43.03125,52.33125305175781
1770950692810196500,6.741196533203125,37.05000305175781,43.91250228881836,51.95625305175781
1770950692820196600,6.751196533203125,36.75,44.681251525878906,51.26250076293945
1770950692830196500,6.761196533203125,36.73125076293945,45.28125,50.83125305175781
1770950692840196600,6.771196533203125,37.20000076293945,45.97500228881836,50.23125076293945
1770950692850196500,6.781196533203125,37.462501525878906,46.5,49.743751525878906
1770950692860196600,6.791196533203125,37.650001525878906,47.212501525878906,49.63125228881836
1770950692870196500,6.801196533203125,38.13750076293945,48.01875305175781,49.20000076293945
1770950692880196600,6.811196533203125,38.493751525878906,48.54375076293945,48.67500305175781
1770950692890196500,6.821196533203125,39.056251525878906,48.843753814697266,48.31875228881836
1770950692900196600,6.831196533203125,39.54375076293945,49.10625076293945,48.093753814697266
1770950692910196500,6.841196533203125,39.618751525878906,49.80000305175781,47.75625228881836
1770950692920196600,6.851196533203125,39.48750305175781,49.98750305175781,47.83125305175781
1770950692930196500,6.861196533203125,39.5625,50.36250305175781,47.625
1770950692940196600,6.871196533203125,39.91875076293945,50.70000076293945,47.26875305175781
1770950692950196500,6.881196533203125,40.01250076293945,50.73750305175781,47.26875305175781
1770950692960196600,6.891196533203125,40.087501525878906,50.94375228881836,47.13750076293945
1770950692970196500,6.901196533203125,40.10625076293945,51.150001525878906,47.0625
1770950692980196600,6.911196533203125,40.21875,51.243751525878906,47.23125076293945
1770950692990196500,6.921196533203125,40.76250076293945,50.98125076293945,47.38125228881836
1770950693000196600,6.931196533203125,41.28750228881836,51.16875076293945,47.212501525878906
1770950693010196500,6.941196533203125,41.212501525878906,51.20625305175781,47.19375228881836
1770950693020196600,6.951196533203125,41.25,50.92500305175781,47.23125076293945
1770950693030196500,6.961196533203125,41.45625305175781,50.681251525878906,46.837501525878906
1770950693040196600,6.971196533203125,41.493751525878906,50.56875228881836,46.70625305175781
1770950693050196500,6.981196533203125,41.08125305175781,50.493751525878906,46.80000305175781
1770950693060196600,6.991196533203125,40.98750305175781,50.45625305175781,46.53750228881836
1770950693070196500,7.001196533203125,40.44375228881836,50.64375305175781,46.29375076293945
1770950693080196600,7.011196533203125,40.125,50.868751525878906,46.181251525878906
1770950693090196500,7.021196533203125,40.275001525878906,51.13125228881836,45.993751525878906
1770950693100196600,7.031196533203125,39.84375,51.63750076293945,46.087501525878906
1770950693110196500,7.041196533203125,39.30000305175781,52.35000228881836,46.20000076293945
1770950693120196600,7.051196533203125,38.8125,52.743751525878906,46.29375076293945
1770950693130196500,7.061196533203125,38.94375228881836,53.17500305175781,46.125
1770950693140196600,7.071196533203125,38.47500228881836,53.493751525878906,46.21875
1770950693150196500,7.081196533203125,38.36250305175781,53.812503814697266,46.21875
1770950693160196600,7.091196533203125,37.95000076293945,54.07500076293945,46.181251525878906
1770950693170196500,7.101196533203125,37.21875,54.150001525878906,46.087501525878906
1770950693180196600,7.111196533203125,37.05000305175781,54.31875228881836,45.900001525878906
1770950693190196500,7.121196533203125,36.69375228881836,54.187503814697266,45.67500305175781
1770950693200196600,7.131196533203125,36.5625,54.30000305175781,45.618751525878906
1770950693210196500,7.141196533203125,36.26250076293945,54.187503814697266,45.50625228881836
1770950693220196600,7.151196533203125,36.50625228881836,54.187503814697266,45.28125
1770950693230196500,7.161196533203125,36.39375305175781,54.243751525878906,45.1875
1770950693240196600,7.171196533203125,36.67500305175781,54.07500076293945,45.056251525878906
1770950693250196500,7.181196533203125,37.10625076293945,54.11250305175781,45.056251525878906
1770950693260196600,7.191196533203125,37.275001525878906,54.000003814697266,45.03750228881836
1770950693270196500,7.201196533203125,37.61250305175781,54.000003814697266,45.01875305175781
1770950693280196600,7.211196533203125,37.78125,53.868751525878906,45.09375
1770950693290196500,7.221196533203125,37.81875228881836,53.868751525878906,45.01875305175781
1770950693300196600,7.231196533203125,37.66875076293945,54.01875305175781,45.1875
1770950693310196500,7.241196533203125,37.837501525878906,53.962501525878906,45.07500076293945
1770950693320196600,7.251196533203125,37.76250076293945,54.01875305175781,45.01875305175781
1770950693330196500,7.261196533203125,37.51875305175781,53.906253814697266,44.962501525878906
1770950693340196600,7.271196533203125,37.181251525878906,54.056251525878906,44.962501525878906
1770950693350196500,7.281196533203125,36.88125228881836,54.187503814697266,45.03750228881836
1770950693360196600,7.291196533203125,36.63750076293945,54.431251525878906,44.88750076293945
1770950693370196500,7.301196533203125,36.16875076293945,54.60000228881836,44.92500305175781
1770950693380196600,7.311196533203125,35.98125076293945,54.750003814697266,44.66250228881836
1770950693400196600,7.331196533203125,35.8125,55.125003814697266,44.28750228881836
1770950693410196500,7.341196533203125,35.83125305175781,55.406253814697266,43.875
1770950693420196600,7.351196533203125,35.775001525878906,55.500003814697266,43.76250076293945
1770950693430196500,7.361196533203125,35.53125,55.593753814697266,43.81875228881836
1770950693440196600,7.371196533203125,35.32500076293945,55.57500076293945,43.80000305175781
1770950693450196500,7.381196533203125,35.71875,55.61250305175781,43.57500076293945
1770950693460196600,7.391196533203125,35.400001525878906,55.781253814697266,43.837501525878906
1770950693470196500,7.401196533203125,35.025001525878906,56.00625228881836,44.10000228881836
1770950693480196600,7.411196533203125,34.51875305175781,56.156253814697266,44.73750305175781
1770950693490196500,7.421196533203125,34.125,56.19375228881836,45.09375
1770950693500196600,7.431196533203125,33.712501525878906,56.437503814697266,45.150001525878906
1770950693510196500,7.441196533203125,33.63750076293945,56.56875228881836,45.243751525878906
1770950693520196600,7.451196533203125,33.45000076293945,56.70000076293945,45.31875228881836
1770950693530196500,7.461196533203125,33.09375,56.868751525878906,45.50625228881836
1770950693540196600,7.471196533203125,33.431251525878906,56.868751525878906,45.01875305175781
1770950693550196500,7.481196533203125,33.69375228881836,56.98125076293945,44.55000305175781
1770950693560196600,7.491196533203125,34.10625076293945,57.03750228881836,44.212501525878906
1770950693570196500,7.501196533203125,34.087501525878906,57.30000305175781,44.00625228881836
1770950693580196600,7.511196533203125,34.21875,57.468753814697266,44.04375076293945
1770950693590196500,7.521196533203125,34.087501525878906,57.41250228881836,43.78125
1770950693600196600,7.531196533203125,33.993751525878906,57.431251525878906,43.59375
1770950693610196500,7.541196533203125,33.88125228881836,57.69375228881836,43.72500228881836
1770950693620196600,7.551196533203125,33.58125305175781,57.63750076293945,43.80000305175781
1770950693630196500,7.561196533203125,32.79375076293945,57.54375076293945,44.118751525878906
1770950693640196600,7.571196533203125,32.36250305175781,57.45000076293945,44.00625228881836
1770950693650196500,7.581196533203125,32.10000228881836,57.45000076293945,44.19375228881836
1770950693660196600,7.591196533203125,31.98750114440918,57.22500228881836,44.00625228881836
1770950693670196500,7.601196533203125,31.70625114440918,57.431251525878906,44.13750076293945
1770950693680196600,7.611196533203125,31.687501907348633,57.562503814697266,44.23125076293945
1770950693690196500,7.621196533203125,31.42500114440918,57.39375305175781,44.10000228881836
1770950693700196600,7.631196533203125,31.14375114440918,57.67500305175781,44.45625305175781
1770950693710196500,7.641196533203125,31.031251907348633,57.750003814697266,44.55000305175781
1770950693720196600,7.651196533203125,30.76875114440918,57.69375228881836,44.56875228881836
1770950693730196500,7.661196533203125,30.693750381469727,57.86250305175781,44.85000228881836
1770950693740196600,7.671196533203125,30.281251907348633,58.181251525878906,45.150001525878906
1770950693750196500,7.681196533203125,30.056251525878906,58.462501525878906,45.20625305175781
1770950693760196600,7.691196533203125,30.093751907348633,58.556251525878906,45.35625076293945
1770950693770196500,7.701196533203125,29.943750381469727,58.91250228881836,45.35625076293945
1770950693780196600,7.711196533203125,29.812501907348633,59.04375076293945,45.30000305175781
1770950693790196500,7.721196533203125,29.92500114440918,59.28750228881836,45.07500076293945
1770950693800196600,7.731196533203125,29.73750114440918,59.75625228881836,45.13125228881836
1770950693810196500,7.741196533203125,29.625001907348633,59.718753814697266,44.8125
1770950693820196600,7.751196533203125,30.000001907348633,59.73750305175781,44.625
1770950693830196500,7.761196533203125,30.000001907348633,59.64375305175781,44.38125228881836
1770950693840196600,7.771196533203125,29.681251525878906,59.98125076293945,44.17500305175781
1770950693850196500,7.781196533203125,29.587501525878906,60.000003814697266,44.04375076293945
1770950693860196600,7.791196533203125,29.475000381469727,60.03750228881836,43.95000076293945
1770950693870196500,7.801196533203125,29.493751525878906,60.187503814697266,43.78125
1770950693880196600,7.811196533203125,29.400001525878906,60.31875228881836,43.85625076293945
1770950693890196500,7.821196533203125,29.231250762939453,60.48750305175781,44.00625228881836
1770950693900196600,7.831196533203125,28.98750114440918,60.50625228881836,44.10000228881836
1770950693910196500,7.841196533203125,29.025001525878906,60.60000228881836,44.212501525878906
1770950693920196600,7.851196533203125,29.043750762939453,60.656253814697266,44.38125228881836
1770950693930196500,7.861196533203125,29.212501525878906,60.562503814697266,44.38125228881836
1770950693940196600,7.871196533203125,29.36250114440918,60.60000228881836,44.56875228881836
1770950693950196500,7.881196533203125,29.156251907348633,60.54375076293945,44.8125
1770950693960196600,7.891196533203125,29.437501907348633,60.35625076293945,44.64375305175781
1770950693970196500,7.901196533203125,29.55000114440918,60.16875076293945,44.26875305175781
1770950693980196600,7.911196533203125,29.700000762939453,60.16875076293945,44.04375076293945
1770950693990196500,7.921196533203125,29.793750762939453,59.962501525878906,43.96875
1770950694000196600,7.931196533203125,30.01875114440918,59.775001525878906,43.6875
1770950694010196500,7.941196533203125,30.375001907348633,59.79375076293945,43.5
1770950694020196600,7.951196533203125,30.58125114440918,59.45625305175781,43.3125
1770950694030196500,7.961196533203125,31.387500762939453,59.36250305175781,43.21875
1770950694040196600,7.971196533203125,31.781251907348633,59.10000228881836,43.05000305175781
1770950694050196500,7.981196533203125,32.45625305175781,58.837501525878906,43.16250228881836
1770950694060196600,7.991196533203125,32.92500305175781,58.687503814697266,43.21875
1770950694070196500,8.001196533203125,33.806251525878906,58.781253814697266,43.275001525878906
1770950694080196600,8.011196533203124,34.42500305175781,58.72500228881836,43.38750076293945
1770950694090196500,8.021196533203126,34.80000305175781,58.51875305175781,43.44375228881836
1770950694100196600,8.031196533203126,35.10000228881836,58.781253814697266,43.38750076293945
1770950694110196500,8.041196533203125,34.91250228881836,58.875003814697266,43.44375228881836
1770950694120196600,8.051196533203125,34.6875,59.19375228881836,43.59375
1770950694130196500,8.061196533203125,34.462501525878906,59.531253814697266,43.76250076293945
1770950694140196600,8.071196533203125,34.21875,59.625003814697266,43.44375228881836
1770950694150196500,8.081196533203125,33.75,59.60625076293945,43.38750076293945
1770950694160196600,8.091196533203124,33.60000228881836,59.51250076293945,43.29375076293945
1770950694170196500,8.101196533203124,33.65625,59.70000076293945,43.14375305175781
1770950694180196600,8.111196533203126,33.712501525878906,59.56875228881836,42.95625305175781
1770950694190196500,8.121196533203126,33.82500076293945,59.531253814697266,42.86250305175781
1770950694200196600,8.131196533203125,33.86250305175781,59.400001525878906,42.712501525878906
1770950694210196500,8.141196533203125,33.82500076293945,59.60625076293945,42.54375076293945
1770950694220196600,8.151196533203125,33.82500076293945,59.493751525878906,42.65625
1770950694230196500,8.161196533203125,33.41250228881836,59.51250076293945,42.60000228881836
1770950694240196600,8.171196533203124,32.75625228881836,59.718753814697266,42.75
1770950694250196500,8.181196533203124,31.912500381469727,60.093753814697266,42.95625305175781
1770950694260196600,8.191196533203126,31.293750762939453,60.35625076293945,43.181251525878906
1770950694270196500,8.201196533203126,30.525001525878906,60.468753814697266,43.087501525878906
1770950694280196600,8.211196533203125,29.981250762939453,60.656253814697266,43.3125
1770950694290196500,8.221196533203125,29.662500381469727,60.58125305175781,43.53750228881836
1770950694300196600,8.231196533203125,29.306251525878906,60.843753814697266,43.76250076293945
1770950694310196500,8.241196533203125,29.26875114440918,60.993751525878906,43.96875
1770950694320196600,8.251196533203125,29.625001907348633,61.125003814697266,43.80000305175781
1770950694330196500,8.261196533203124,29.850000381469727,60.900001525878906,43.78125
1770950694340196600,8.271196533203126,30.000001907348633,60.900001525878906,43.837501525878906
1770950694350196500,8.281196533203126,30.375001907348633,60.618751525878906,43.81875228881836
1770950694360196600,8.291196533203125,30.506250381469727,60.431251525878906,43.72500228881836
1770950694370196500,8.301196533203125,30.356250762939453,60.562503814697266,43.63125228881836
1770950694380196600,8.311196533203125,30.093751907348633,60.48750305175781,43.837501525878906
1770950694390196500,8.321196533203125,29.887500762939453,60.31875228881836,43.61250305175781
1770950694400196600,8.331196533203125,29.36250114440918,60.375003814697266,43.5
1770950694410196500,8.341196533203124,28.912500381469727,60.26250076293945,43.38750076293945
1770950694420196600,8.351196533203124,28.80000114440918,60.11250305175781,43.125
1770950694430196500,8.361196533203126,28.593751907348633,60.16875076293945,43.16250228881836
1770950694440196600,8.371196533203126,28.500001907348633,60.26250076293945,43.38750076293945
1770950694450196500,8.381196533203125,28.481250762939453,60.03750228881836,43.42500305175781
1770950694460196600,8.391196533203125,28.687501907348633,60.000003814697266,43.275001525878906
1770950694470196500,8.401196533203125,28.80000114440918,59.962501525878906,43.53750228881836
1770950694480196600,8.411196533203125,28.687501907348633,59.681251525878906,43.931251525878906
1770950694490196500,8.421196533203124,28.931251525878906,59.493751525878906,44.23125076293945
1770950694500196600,8.431196533203124,28.42500114440918,59.306251525878906,44.625
1770950694510196500,8.441196533203126,27.975000381469727,59.36250305175781,45.13125228881836
1770950694520196600,8.451196533203126,27.58125114440918,59.26875305175781,45.50625228881836
1770950694530196500,8.461196533203125,27.131250381469727,59.32500076293945,45.97500228881836
1770950694540196600,8.471196533203125,26.400001525878906,59.306251525878906,46.3125
1770950694550196500,8.481196533203125,25.837501525878906,59.212501525878906,46.57500076293945
1770950694560196600,8.491196533203125,25.650001525878906,59.19375228881836,46.743751525878906
1770950694570196500,8.501196533203125,25.162500381469727,59.17500305175781,47.10000228881836
1770950694580196600,8.511196533203124,24.937501907348633,59.08125305175781,47.36250305175781
1770950694590196500,8.521196533203126,24.637500762939453,58.650001525878906,47.64375305175781
1770950694600196600,8.531196533203126,24.600000381469727,58.031253814697266,47.60625076293945
1770950694610196500,8.541196533203125,24.806251525878906,57.41250228881836,47.47500228881836
1770950694620196600,8.551196533203125,25.23750114440918,56.812503814697266,47.45625305175781
1770950694630196500,8.561196533203125,25.200000762939453,56.437503814697266,47.66250228881836
1770950694640196600,8.571196533203125,25.293750762939453,55.781253814697266,47.64375305175781
1770950694650196500,8.581196533203125,25.200000762939453,55.23750305175781,47.70000076293945
1770950694660196600,8.591196533203124,25.406251907348633,54.937503814697266,47.71875
1770950694670196500,8.601196533203124,25.70625114440918,54.82500076293945,47.71875
1770950694680196600,8.611196533203126,25.912500381469727,54.937503814697266,47.98125076293945
1770950694690196500,8.621196533203126,25.98750114440918,55.087501525878906,47.962501525878906
1770950694700196600,8.631196533203125,25.781251907348633,55.06875228881836,48
1770950694710196500,8.641196533203125,25.98750114440918,55.14375305175781,47.8125
1770950694720196600,8.651196533203125,26.212501525878906,55.48125076293945,47.90625
1770950694730196500,8.661196533203125,26.512500762939453,55.72500228881836,47.868751525878906
1770950694740196600,8.671196533203124,26.475000381469727,55.687503814697266,47.8125
1770950694750196500,8.681196533203124,26.73750114440918,55.66875076293945,47.64375305175781
1770950694760196600,8.691196533203126,26.700000762939453,55.781253814697266,47.34375
1770950694770196500,8.701196533203126,26.493751525878906,55.72500228881836,47.493751525878906
1770950694780196600,8.711196533203125,26.700000762939453,56.10000228881836,47.47500228881836
1770950694790196500,8.721196533203125,26.700000762939453,56.062503814697266,47.41875076293945
1770950694800196600,8.731196533203125,26.606250762939453,55.89375305175781,47.26875305175781
1770950694810196500,8.741196533203125,26.475000381469727,56.025001525878906,47.38125228881836
1770950694820196600,8.751196533203125,26.512500762939453,56.212501525878906,47.26875305175781
1770950694830196500,8.761196533203124,26.381250381469727,56.32500076293945,47.4375
1770950694840196600,8.771196533203126,26.381250381469727,56.19375228881836,47.38125228881836
1770950694850196500,8.781196533203126,26.531251907348633,56.26875305175781,47.26875305175781
1770950694860196600,8.791196533203125,26.26875114440918,55.98750305175781,47.53125
1770950694870196500,8.801196533203125,26.437501907348633,55.98750305175781,47.73750305175781
1770950694880196600,8.811196533203125,26.55000114440918,55.968753814697266,47.98125076293945
1770950694890196500,8.821196533203125,26.793750762939453,55.650001525878906,47.75625228881836
1770950694900196600,8.831196533203125,27.075000762939453,55.406253814697266,47.98125076293945
1770950694910196500,8.841196533203124,27.39375114440918,55.05000305175781,48
1770950694920196600,8.851196533203124,27.525001525878906,55.05000305175781,47.94375228881836
1770950694930196500,8.861196533203126,27.843751907348633,54.712501525878906,48
1770950694940196600,8.871196533203126,28.500001907348633,54.45000076293945,47.75625228881836
1770950694950196500,8.881196533203125,28.968751907348633,54.11250305175781,47.64375305175781
1770950694960196600,8.891196533203125,29.212501525878906,53.75625228881836,47.47500228881836
1770950694970196500,8.901196533203125,29.775001525878906,53.531253814697266,47.79375076293945
1770950694980196600,8.911196533203125,30.187501907348633,53.45625305175781,47.70000076293945
1770950694990196500,8.921196533203124,30.412500381469727,53.212501525878906,47.400001525878906
1770950695000196600,8.931196533203124,30.76875114440918,53.062503814697266,47.60625076293945
1770950695010196500,8.941196533203126,30.975000381469727,52.89375305175781,47.400001525878906
1770950695020196600,8.951196533203126,31.068750381469727,52.91250228881836,47.493751525878906
1770950695030196500,8.961196533203125,30.975000381469727,53.17500305175781,47.47500228881836
1770950695040196600,8.971196533203125,31.012500762939453,53.250003814697266,47.26875305175781
1770950695050196500,8.981196533203125,31.012500762939453,53.400001525878906,47.0625
1770950695060196600,8.991196533203125,31.162500381469727,53.26875305175781,47.04375076293945
1770950695070196500,9.001196533203125,31.181251525878906,53.45625305175781,47.212501525878906
1770950695080196600,9.011196533203124,31.275001525878906,53.38125228881836,47.19375228881836
1770950695090196500,9.021196533203126,31.068750381469727,53.531253814697266,47.28750228881836
1770950695100196600,9.031196533203126,30.731250762939453,53.45625305175781,47.64375305175781
1770950695110196500,9.041196533203125,30.656251907348633,53.250003814697266,47.66250228881836
1770950695120196600,9.051196533203125,30.337501525878906,52.98750305175781,47.94375228881836
1770950695130196500,9.061196533203125,29.83125114440918,52.91250228881836,48.187503814697266
1770950695140196600,9.071196533203125,29.325000762939453,52.72500228881836,48.41250228881836
1770950695150196500,9.081196533203125,29.193750381469727,52.66875076293945,48.712501525878906
1770950695160196600,9.091196533203124,29.17500114440918,52.500003814697266,48.937503814697266
1770950695170196500,9.101196533203124,29.137500762939453,52.556251525878906,49.500003814697266
1770950695180196600,9.111196533203126,29.26875114440918,52.44375228881836,49.29375076293945
1770950695190196500,9.121196533203126,29.212501525878906,52.42500305175781,49.57500076293945
1770950695200196600,9.131196533203125,29.587501525878906,52.593753814697266,49.556251525878906
1770950695210196500,9.141196533203125,29.812501907348633,52.48125076293945,49.29375076293945
1770950695220196600,9.151196533203125,30.30000114440918,52.48125076293945,48.750003814697266
1770950695230196500,9.161196533203125,30.58125114440918,52.275001525878906,48.03750228881836
1770950695240196600,9.171196533203124,30.825000762939453,52.368751525878906,47.38125228881836
1770950695250196500,9.181196533203124,31.275001525878906,52.01250076293945,46.5
1770950695260196600,9.191196533203126,31.500001907348633,52.06875228881836,45.806251525878906
1770950695270196500,9.201196533203126,31.875001907348633,51.91875076293945,44.55000305175781
1770950695280196600,9.211196533203125,32.025001525878906,51.88125228881836,43.29375076293945
1770950695290196500,9.221196533203125,32.587501525878906,51.712501525878906,41.26875305175781
1770950695300196600,9.231196533203125,32.60625076293945,51.63750076293945,40.01250076293945
1770950695310196500,9.241196533203125,32.8125,51.69375228881836,39.09375
1770950695320196600,9.251196533203125,32.55000305175781,51.88125228881836,39.28125
1770950695330196500,9.261196533203124,32.306251525878906,52.05000305175781,39.63750076293945
1770950695350196500,9.281196533203126,31.856250762939453,51.48750305175781,40.81875228881836
1770950695360196600,9.291196533203125,31.575000762939453,51.31875228881836,41.94375228881836
1770950695370196500,9.301196533203125,31.162500381469727,51.20625305175781,43.875
1770950695380196600,9.311196533203125,30.58125114440918,51.22500228881836,45.41250228881836
1770950695390196500,9.321196533203125,30.39375114440918,51.16875076293945,46.743751525878906
1770950695400196600,9.331196533203125,30.281251907348633,50.98125076293945,47.15625
1770950695410196500,9.341196533203124,29.962501525878906,51.093753814697266,47.85000228881836
1770950695420196600,9.351196533203124,29.587501525878906,51.20625305175781,48.50625228881836
1770950695430196500,9.361196533203126,29.587501525878906,51.41250228881836,49.20000076293945
1770950695440196600,9.371196533203126,29.26875114440918,51.58125305175781,50.10000228881836
1770950695450196500,9.381196533203125,28.80000114440918,51.525001525878906,50.70000076293945
1770950695460196600,9.391196533203125,28.687501907348633,51.50625228881836,51.45000076293945
1770950695470196500,9.401196533203125,28.218751907348633,51.468753814697266,52.06875228881836
1770950695480196600,9.411196533203125,28.05000114440918,51.07500076293945,52.650001525878906
1770950695490196500,9.421196533203124,28.462501525878906,50.45625305175781,52.500003814697266
1770950695500196600,9.431196533203124,28.725000381469727,50.118751525878906,52.687503814697266
1770950695510196500,9.441196533203126,29.343751907348633,49.781253814697266,52.968753814697266
1770950695520196600,9.451196533203126,30.000001907348633,49.312503814697266,52.781253814697266
1770950695530196500,9.461196533203125,30.76875114440918,49.500003814697266,52.968753814697266
1770950695540196600,9.471196533203125,31.593751907348633,49.25625228881836,52.875003814697266
1770950695550196500,9.481196533203125,32.19375228881836,49.16250228881836,52.95000076293945
1770950695560196600,9.491196533203125,32.79375076293945,49.20000076293945,52.72500228881836
1770950695570196500,9.501196533203125,33.01875305175781,49.500003814697266,52.837501525878906
1770950695580196600,9.511196533203124,33.75,49.781253814697266,52.85625076293945
1770950695590196500,9.521196533203126,34.03125,49.875003814697266,52.72500228881836
1770950695600196600,9.531196533203126,34.44375228881836,50.17500305175781,52.80000305175781
1770950695610196500,9.541196533203125,34.81875228881836,50.118751525878906,52.38750076293945
1770950695620196600,9.551196533203125,35.15625,50.28750228881836,51.91875076293945
1770950695630196500,9.561196533203125,35.28750228881836,50.32500076293945,51.45000076293945
1770950695640196600,9.571196533203125,35.73750305175781,50.343753814697266,51.03750228881836
1770950695650196500,9.581196533203125,36.07500076293945,50.38125228881836,50.718753814697266
1770950695660196600,9.591196533203124,35.88750076293945,50.47500228881836,49.98750305175781
1770950695670196500,9.601196533203124,36.09375,50.531253814697266,49.14375305175781
1770950695680196600,9.611196533203126,35.90625,50.70000076293945,48.54375076293945
1770950695690196500,9.621196533203126,35.85000228881836,50.64375305175781,48
1770950695700196600,9.631196533203125,35.73750305175781,50.625003814697266,47.64375305175781
1770950695710196500,9.641196533203125,35.85000228881836,50.718753814697266,46.89375305175781
1770950695720196600,9.651196533203125,35.400001525878906,50.94375228881836,46.96875
1770950695730196500,9.661196533203125,35.19375228881836,51.01875305175781,47.0625
1770950695740196600,9.671196533203124,35.15625,51.093753814697266,47.38125228881836
1770950695750196500,9.681196533203124,34.81875228881836,51.13125228881836,48.03750228881836
1770950695760196600,9.691196533203126,34.6875,51.03750228881836,48.468753814697266
1770950695770196500,9.701196533203126,34.63125228881836,51.13125228881836,49.14375305175781
1770950695780196600,9.711196533203125,34.72500228881836,51.187503814697266,49.53750228881836
1770950695790196500,9.721196533203125,34.98750305175781,51.07500076293945,50.28750228881836
1770950695800196600,9.731196533203125,35.45625305175781,50.70000076293945,49.91250228881836
1770950695810196500,9.741196533203125,35.85000228881836,50.04375076293945,49.95000076293945
1770950695820196600,9.751196533203125,35.868751525878906,49.500003814697266,49.968753814697266
1770950695830196500,9.761196533203124,36.337501525878906,49.20000076293945,49.98750305175781
1770950695840196600,9.771196533203126,37.05000305175781,48.656253814697266,49.98750305175781
1770950695850196500,9.781196533203126,37.29375076293945,48.26250076293945,50.062503814697266
1770950695860196600,9.791196533203125,37.63125228881836,48.056251525878906,50.56875228881836
1770950695870196500,9.801196533203125,37.81875228881836,47.83125305175781,51.11250305175781
1770950695880196600,9.811196533203125,37.96875,47.64375305175781,51.937503814697266
1770950695890196500,9.821196533203125,38.13750076293945,47.85000228881836,52.125003814697266
1770950695900196600,9.831196533203125,38.98125076293945,48,52.462501525878906
1770950695910196500,9.841196533203124,38.94375228881836,47.85000228881836,52.556251525878906
1770950695920196600,9.851196533203124,39.22500228881836,47.962501525878906,52.91250228881836
1770950695930196500,9.861196533203126,39.375,47.73750305175781,53.118751525878906
1770950695940196600,9.871196533203126,39.525001525878906,47.60625076293945,53.062503814697266
1770950695950196500,9.881196533203125,39.46875,47.53125,52.72500228881836
1770950695960196600,9.891196533203125,39.5625,47.493751525878906,52.85625076293945
1770950695970196500,9.901196533203125,39.63750076293945,47.493751525878906,52.85625076293945
1770950695980196600,9.911196533203125,39.28125,47.306251525878906,52.743751525878906
1770950695990196500,9.921196533203124,39.54375076293945,47.26875305175781,52.968753814697266
1770950696000196600,9.931196533203124,39.431251525878906,47.19375228881836,52.837501525878906
1770950696010196500,9.941196533203126,39.63750076293945,47.23125076293945,52.781253814697266
1770950696020196600,9.951196533203126,39.78750228881836,47.10000228881836,52.743751525878906
1770950696030196500,9.961196533203125,39.88125228881836,46.95000076293945,53.118751525878906
1770950696040196600,9.971196533203125,39.73125076293945,46.95000076293945,53.118751525878906
1770950696050196500,9.981196533203125,39.86250305175781,46.98750305175781,53.212501525878906
1770950696060196600,9.991196533203125,39.900001525878906,47.13750076293945,53.400001525878906
1770950696070196500,10.001196533203125,39.84375,47.19375228881836,53.32500076293945
1770950696080196600,10.011196533203124,39.76875305175781,47.212501525878906,53.531253814697266
1770950696090196500,10.021196533203126,39.712501525878906,47.51250076293945,53.83125305175781
1770950696100196600,10.031196533203126,39.54375076293945,47.64375305175781,54.01875305175781
1770950696110196500,10.041196533203125,39.618751525878906,47.64375305175781,53.94375228881836
1770950696120196600,10.051196533203125,39.900001525878906,47.8125,53.83125305175781
1770950696130196500,10.061196533203125,39.67500305175781,47.625,53.75625228881836
1770950696140196600,10.071196533203125,39.618751525878906,47.493751525878906,53.718753814697266
1770950696150196500,10.081196533203125,39.82500076293945,47.53125,53.36250305175781
1770950696160196600,10.091196533203124,39.69375228881836,47.493751525878906,52.95000076293945
1770950696170196500,10.101196533203124,39.712501525878906,47.15625,52.462501525878906
1770950696180196600,10.111196533203126,39.46875,47.0625,52.48125076293945
1770950696190196500,10.121196533203126,39.30000305175781,47.17500305175781,52.35000228881836
1770950696200196600,10.131196533203125,38.962501525878906,46.91250228881836,52.44375228881836
1770950696210196500,10.141196533203125,38.8125,46.81875228881836,52.57500076293945
1770950696220196600,10.151196533203125,38.681251525878906,46.85625076293945,52.53750228881836
1770950696230196500,10.161196533203125,38.15625,46.57500076293945,52.85625076293945
1770950696240196600,10.171196533203124,38.118751525878906,46.38750076293945,53.118751525878906
1770950696250196500,10.181196533203124,37.72500228881836,46.38750076293945,53.625003814697266
1770950696260196600,10.191196533203126,37.462501525878906,46.275001525878906,53.55000305175781
1770950696270196500,10.201196533203126,37.48125076293945,46.14375305175781,53.681251525878906
1770950696280196600,10.211196533203125,37.63125228881836,46.21875,53.92500305175781
1770950696290196500,10.221196533203125,37.80000305175781,46.21875,54.07500076293945
1770950696300196600,10.231196533203125,37.61250305175781,46.14375305175781,54.39375305175781
1770950696310196500,10.241196533203125,37.76250076293945,46.05000305175781,54.525001525878906
1770950696320196600,10.251196533203125,37.76250076293945,46.03125,54.431251525878906
1770950696330196500,10.261196533203124,38.212501525878906,45.78750228881836,53.906253814697266
1770950696340196600,10.271196533203126,38.79375076293945,45.69375228881836,53.625003814697266
1770950696350196500,10.281196533203126,39,45.60000228881836,53.343753814697266
1770950696360196600,10.291196533203125,39.20625305175781,45.337501525878906,52.98750305175781
1770950696370196500,10.301196533203125,39.46875,45.45000076293945,52.837501525878906
1770950696380196600,10.311196533203125,39.86250305175781,45.39375305175781,52.781253814697266
1770950696390196500,10.321196533203125,40.10625076293945,45.73125076293945,52.593753814697266
1770950696400196600,10.331196533203125,40.42500305175781,45.82500076293945,52.781253814697266
1770950696410196500,10.341196533203124,40.66875076293945,46.181251525878906,53.38125228881836
1770950696420196600,10.351196533203124,40.96875,46.40625,53.437503814697266
1770950696430196500,10.361196533203126,41.306251525878906,46.556251525878906,53.41875076293945
1770950696440196600,10.371196533203126,41.90625,46.875,53.437503814697266
1770950696450196500,10.381196533203125,42.46875,47.0625,53.156253814697266
1770950696460196600,10.391196533203125,43.25625228881836,47.41875076293945,53.00625228881836
1770950696470196500,10.401196533203125,43.91250228881836,47.73750305175781,52.743751525878906
1770950696480196600,10.411196533203125,44.625,48.11250305175781,52.368751525878906
1770950696490196500,10.421196533203124,44.94375228881836,48.337501525878906,51.73125076293945
1770950696500196600,10.431196533203124,45.22500228881836,48.82500076293945,51.48750305175781
1770950696510196500,10.441196533203126,45.75,49.48125076293945,51.39375305175781
1770950696520196600,10.451196533203126,45.78750228881836,49.91250228881836,51.03750228881836
1770950696530196500,10.461196533203125,45.806251525878906,50.26875305175781,50.66250228881836
1770950696540196600,10.471196533203125,45.69375228881836,50.55000305175781,49.89375305175781
1770950696550196500,10.481196533203125,45.806251525878906,50.79375076293945,49.44375228881836
1770950696560196600,10.491196533203125,45.58125305175781,51.31875228881836,49.031253814697266
1770950696570196500,10.501196533203125,45.67500305175781,51.86250305175781,48.712501525878906
1770950696580196600,10.511196533203124,45.431251525878906,52.14375305175781,48.431251525878906
1770950696590196500,10.521196533203126,45.31875228881836,52.125003814697266,47.8125
1770950696600196600,10.531196533203126,45.22500228881836,52.53750228881836,47.85000228881836
1770950696610196500,10.541196533203125,45.09375,52.875003814697266,47.8125
1770950696620196600,10.551196533203125,44.70000076293945,52.95000076293945,47.94375228881836
1770950696630196500,10.561196533203125,44.34375,52.89375305175781,48.01875305175781
1770950696640196600,10.571196533203125,44.34375,52.687503814697266,48.150001525878906
1770950696650196500,10.581196533203125,43.89375305175781,52.35000228881836,48.07500076293945
1770950696660196600,10.591196533203124,43.875,52.14375305175781,48.26250076293945
1770950696670196500,10.601196533203124,43.556251525878906,52.031253814697266,48.712501525878906
1770950696680196600,10.611196533203126,43.72500228881836,51.76875305175781,48.67500305175781
1770950696690196500,10.621196533203126,43.837501525878906,51.30000305175781,49.087501525878906
1770950696700196600,10.631196533203125,44.15625,50.94375228881836,49.125003814697266
1770950696710196500,10.641196533203125,44.41875076293945,50.531253814697266,49.61250305175781
1770950696720196600,10.651196533203125,44.66250228881836,50.13750076293945,49.85625076293945
1770950696730196500,10.661196533203125,45.26250076293945,49.85625076293945,50.400001525878906
1770950696740196600,10.671196533203124,45.86250305175781,49.35000228881836,50.906253814697266
1770950696750196500,10.681196533203124,46.743751525878906,48.937503814697266,51.243751525878906
1770950696760196600,10.691196533203126,47.25,48.150001525878906,51.618751525878906
1770950696770196500,10.701196533203126,47.90625,47.47500228881836,51.76875305175781
1770950696780196600,10.711196533203125,48.525001525878906,46.91250228881836,52.35000228881836
1770950696790196500,10.721196533203125,48.76875305175781,46.6875,52.368751525878906
1770950696800196600,10.731196533203125,49.181251525878906,46.25625228881836,52.500003814697266
1770950696810196500,10.741196533203125,49.500003814697266,45.76875305175781,52.35000228881836
1770950696820196600,10.751196533203125,49.57500076293945,45.76875305175781,52.23750305175781
1770950696830196500,10.761196533203124,49.48125076293945,45.58125305175781,52.10625076293945
1770950696840196600,10.771196533203126,49.51875305175781,45.84375,51.806251525878906
1770950696850196500,10.781196533203126,49.406253814697266,46.03125,51.712501525878906
1770950696860196600,10.791196533203125,49.23750305175781,46.42500305175781,51.39375305175781
1770950696870196500,10.801196533203125,49.53750228881836,46.59375,51.54375076293945
1770950696880196600,10.811196533203125,49.70625305175781,46.89375305175781,51.50625228881836
1770950696890196500,10.821196533203125,49.81875228881836,47.212501525878906,51.900001525878906
1770950696900196600,10.831196533203125,49.931251525878906,46.95000076293945,51.63750076293945
1770950696910196500,10.841196533203124,49.89375305175781,47.10000228881836,51.843753814697266
1770950696920196600,10.851196533203124,49.650001525878906,46.837501525878906,51.806251525878906
1770950696930196500,10.861196533203126,49.25625228881836,46.78125,51.843753814697266
1770950696940196600,10.871196533203126,49.23750305175781,46.78125,51.76875305175781
1770950696950196500,10.881196533203125,48.900001525878906,46.6875,51.281253814697266
1770950696960196600,10.891196533203125,48.54375076293945,46.72500228881836,51.150001525878906
1770950696970196500,10.901196533203125,48.22500228881836,46.96875,50.85000228881836
1770950696980196600,10.911196533203125,48.20625305175781,47.25,50.98125076293945
1770950696990196500,10.921196533203124,47.962501525878906,47.4375,50.88750076293945
1770950697000196600,10.931196533203124,48.03750228881836,47.625,51.03750228881836
1770950697010196500,10.941196533203126,48.50625228881836,47.85000228881836,51.01875305175781
1770950697020196600,10.951196533203126,48.73125076293945,47.92500305175781,51.11250305175781
1770950697030196500,10.961196533203125,49.10625076293945,47.75625228881836,51.13125228881836
1770950697040196600,10.971196533203125,49.087501525878906,47.56875228881836,51.056251525878906
1770950697050196500,10.981196533203125,49.087501525878906,47.306251525878906,50.83125305175781
1770950697060196600,10.991196533203125,48.63750076293945,47.25,50.718753814697266
1770950697070196500,11.001196533203125,48.525001525878906,46.95000076293945,50.47500228881836
1770950697080196600,11.011196533203124,48.22500228881836,46.80000305175781,50.32500076293945
1770950697090196500,11.021196533203126,47.868751525878906,46.76250076293945,50.19375228881836
1770950697100196600,11.031196533203126,47.587501525878906,46.51875305175781,49.95000076293945
1770950697110196500,11.041196533203125,47.118751525878906,46.63125228881836,49.89375305175781
1770950697120196600,11.051196533203125,46.931251525878906,46.66875076293945,49.781253814697266
1770950697130196500,11.061196533203125,46.48125076293945,46.70625305175781,49.80000305175781
1770950697140196600,11.071196533203125,46.40625,46.66875076293945,49.687503814697266
1770950697150196500,11.081196533203125,46.53750228881836,46.76250076293945,49.593753814697266
1770950697160196600,11.091196533203124,46.556251525878906,46.837501525878906,49.63125228881836
1770950697170196500,11.101196533203124,46.38750076293945,46.6875,49.556251525878906
1770950697180196600,11.111196533203126,46.38750076293945,46.85625076293945,49.63125228881836
1770950697190196500,11.121196533203126,46.33125305175781,47.04375076293945,49.66875076293945
1770950697200196600,11.131196533203125,46.275001525878906,47.15625,49.687503814697266
1770950697210196500,11.141196533203125,46.51875305175781,47.23125076293945,49.70625305175781
1770950697220196600,11.151196533203125,46.40625,47.32500076293945,49.556251525878906
1770950697230196500,11.161196533203125,46.10625076293945,47.51250076293945,49.61250305175781
1770950697240196600,11.171196533203124,46.125,47.79375076293945,49.368751525878906
1770950697250196500,11.181196533203124,46.21875,48.20625305175781,49.16250228881836
1770950697260196600,11.191196533203126,46.23750305175781,48.58125305175781,49.087501525878906
1770950697270196500,11.201196533203126,46.33125305175781,48.937503814697266,48.993751525878906
1770950697280196600,11.211196533203125,46.42500305175781,49.368751525878906,48.82500076293945
1770950697290196500,11.221196533203125,46.48125076293945,49.85625076293945,48.468753814697266
1770950697300196600,11.231196533203125,46.743751525878906,50.23125076293945,48.337501525878906
1770950697310196500,11.241196533203125,47.34375,50.681251525878906,47.775001525878906
1770950697320196600,11.251196533203125,47.56875228881836,51.45000076293945,47.66250228881836
1770950697330196500,11.261196533203124,47.625,52.087501525878906,47.45625305175781
1770950697340196600,11.271196533203126,47.45625305175781,52.76250076293945,47.118751525878906
1770950697350196500,11.281196533203126,47.400001525878906,53.212501525878906,46.875
1770950697360196600,11.291196533203125,47.587501525878906,53.92500305175781,46.66875076293945
1770950697370196500,11.301196533203125,47.4375,54.50625228881836,46.33125305175781
1770950697380196600,11.311196533203125,47.587501525878906,55.087501525878906,45.900001525878906
1770950697390196500,11.321196533203125,47.23125076293945,55.72500228881836,45.97500228881836
1770950697400196600,11.331196533203125,46.78125,56.212501525878906,45.84375
1770950697410196500,11.341196533203124,46.556251525878906,56.41875076293945,45.76875305175781
1770950697420196600,11.351196533203124,46.48125076293945,56.79375076293945,45.63750076293945
1770950697430196500,11.361196533203126,46.275001525878906,57.20625305175781,45.9375
1770950697440196600,11.371196533203126,45.712501525878906,57.39375305175781,46.06875228881836
1770950697450196500,11.381196533203125,45.69375228881836,57.30000305175781,46.42500305175781
1770950697460196600,11.391196533203125,45.431251525878906,57.468753814697266,46.80000305175781
1770950697470196500,11.401196533203125,45.01875305175781,57.30000305175781,46.89375305175781
1770950697480196600,11.411196533203125,44.98125076293945,57.056251525878906,47.00625228881836
1770950697490196500,11.421196533203124,44.71875,57.150001525878906,47.23125076293945
1770950697500196600,11.431196533203124,44.79375076293945,57.01875305175781,47.493751525878906
1770950697510196500,11.441196533203126,44.85000228881836,56.775001525878906,47.212501525878906
1770950697520196600,11.451196533203126,44.962501525878906,56.60625076293945,47.13750076293945
1770950697530196500,11.461196533203125,44.60625076293945,56.75625228881836,47.0625
1770950697540196600,11.471196533203125,44.400001525878906,56.70000076293945,46.98750305175781
1770950697550196500,11.481196533203125,44.493751525878906,56.38125228881836,46.96875
1770950697560196600,11.491196533203125,44.41875076293945,56.00625228881836,46.85625076293945
1770950697570196500,11.501196533203125,44.79375076293945,55.687503814697266,46.837501525878906
1770950697580196600,11.511196533203124,44.88750076293945,55.16250228881836,46.89375305175781
1770950697590196500,11.521196533203126,45.26250076293945,54.712501525878906,47.13750076293945
1770950697600196600,11.531196533203126,45.76875305175781,54.20625305175781,47.41875076293945
1770950697610196500,11.541196533203125,46.57500076293945,53.70000076293945,47.681251525878906
1770950697620196600,11.551196533203125,47.23125076293945,53.250003814697266,47.92500305175781
1770950697630196500,11.561196533203125,48.056251525878906,53.250003814697266,48.16875076293945
1770950697640196600,11.571196533203125,48.937503814697266,53.025001525878906,48.45000076293945
1770950697650196500,11.581196533203125,49.44375228881836,52.63125228881836,48.562503814697266
1770950697660196600,11.591196533203124,49.80000305175781,52.593753814697266,48.54375076293945
1770950697670196500,11.601196533203124,49.931251525878906,52.743751525878906,48.431251525878906
1770950697680196600,11.611196533203126,50.10000228881836,52.89375305175781,48.03750228881836
1770950697690196500,11.621196533203126,50.118751525878906,52.931251525878906,47.60625076293945
1770950697700196600,11.631196533203125,49.85625076293945,53.10000228881836,47.625
1770950697710196500,11.641196533203125,49.462501525878906,53.28750228881836,47.66250228881836
1770950697720196600,11.651196533203125,49.031253814697266,53.493751525878906,47.55000305175781
1770950697730196500,11.661196533203125,49.031253814697266,53.775001525878906,47.32500076293945
1770950697740196600,11.671196533203124,48.86250305175781,54.16875076293945,47.681251525878906
1770950697750196500,11.681196533203124,48.900001525878906,54.431251525878906,48.11250305175781
1770950697760196600,11.691196533203126,48.843753814697266,54.41250228881836,48.656253814697266
1770950697770196500,11.701196533203126,48.73125076293945,54.281253814697266,49.312503814697266
1770950697780196600,11.711196533203125,48.78750228881836,54.20625305175781,49.650001525878906
1770950697790196500,11.721196533203125,48.73125076293945,54.16875076293945,49.85625076293945
1770950697800196600,11.731196533203125,48.656253814697266,54.07500076293945,50.04375076293945
1770950697810196500,11.741196533203125,48.31875228881836,54.150001525878906,50.343753814697266
1770950697820196600,11.751196533203125,48.31875228881836,53.75625228881836,49.98750305175781
1770950697830196500,11.761196533203124,48.07500076293945,53.41875076293945,49.38750076293945
1770950697840196600,11.771196533203126,47.64375305175781,53.32500076293945,49.031253814697266
1770950697850196500,11.781196533203126,47.17500305175781,53.66250228881836,48.88125228881836
1770950697860196600,11.791196533203125,46.95000076293945,53.962501525878906,48.712501525878906
1770950697870196500,11.801196533203125,46.35000228881836,53.962501525878906,48.31875228881836
1770950697880196600,11.811196533203125,45.84375,54.07500076293945,48.187503814697266
1770950697890196500,11.821196533203125,45.26250076293945,53.88750076293945,48.150001525878906
1770950697900196600,11.831196533203125,44.75625228881836,54.093753814697266,48.281253814697266
1770950697910196500,11.841196533203124,44.26875305175781,54.337501525878906,48.618751525878906
1770950697920196600,11.851196533203124,43.95000076293945,54.39375305175781,48.806251525878906
1770950697930196500,11.861196533203126,43.70625305175781,54.431251525878906,48.82500076293945
1770950697940196600,11.871196533203126,43.42500305175781,54.35625076293945,48.60000228881836
1770950697950196500,11.881196533203125,43.368751525878906,54.26250076293945,48.843753814697266
1770950697960196600,11.891196533203125,43.29375076293945,53.98125076293945,48.54375076293945
1770950697970196500,11.901196533203125,43.25625228881836,54.03750228881836,48.431251525878906
1770950697980196600,11.911196533203125,42.806251525878906,53.718753814697266,48.431251525878906
1770950697990196500,11.921196533203124,42.525001525878906,53.38125228881836,48.281253814697266
1770950698000196600,11.931196533203124,42.243751525878906,53.19375228881836,48.150001525878906
1770950698010196500,11.941196533203126,41.92500305175781,52.91250228881836,48.11250305175781
1770950698020196600,11.951196533203126,41.71875,52.76250076293945,48.20625305175781
1770950698030196500,11.961196533203125,41.36250305175781,52.57500076293945,48.150001525878906
1770950698040196600,11.971196533203125,40.98750305175781,52.650001525878906,48.69375228881836
1770950698050196500,11.981196533203125,40.76250076293945,52.53750228881836,48.82500076293945
1770950698060196600,11.991196533203125,40.85625076293945,52.556251525878906,48.900001525878906
1770950698070196500,12.001196533203125,40.61250305175781,52.51875305175781,49.10625076293945
1770950698080196600,12.011196533203124,40.48125076293945,52.556251525878906,49.14375305175781
1770950698090196500,12.021196533203126,40.63125228881836,52.44375228881836,49.218753814697266
1770950698100196600,12.031196533203126,40.42500305175781,52.275001525878906,49.44375228881836
1770950698110196500,12.041196533203125,40.70625305175781,52.218753814697266,49.38750076293945
1770950698120196600,12.051196533203125,40.80000305175781,52.368751525878906,49.25625228881836
1770950698130196500,12.061196533203125,41.17500305175781,52.33125305175781,49.06875228881836
1770950698140196600,12.071196533203125,41.47500228881836,52.462501525878906,48.82500076293945
1770950698150196500,12.081196533203125,42.07500076293945,52.70625305175781,48.78750228881836
1770950698160196600,12.091196533203124,42.63750076293945,52.91250228881836,48.76875305175781
1770950698170196500,12.101196533203124,43.44375228881836,53.400001525878906,48.431251525878906
1770950698180196600,12.111196533203126,44.212501525878906,53.83125305175781,48.03750228881836
1770950698190196500,12.121196533203126,45.13125228881836,54.82500076293945,47.75625228881836
1770950698200196600,12.131196533203125,46.01250076293945,55.312503814697266,47.34375
1770950698210196500,12.141196533203125,46.556251525878906,56.32500076293945,47.04375076293945
1770950698220196600,12.151196533203125,46.80000305175781,57.11250305175781,46.59375
1770950698230196500,12.161196533203125,47.26875305175781,57.95625305175781,46.14375305175781
1770950698240196600,12.171196533203124,47.51250076293945,58.968753814697266,45.65625
1770950698250196500,12.181196533203124,47.025001525878906,60.000003814697266,45.375
1770950698260196600,12.191196533203126,46.72500228881836,61.14375305175781,44.71875
1770950698270196500,12.201196533203126,45.712501525878906,61.80000305175781,44.34375
1770950698280196600,12.211196533203125,44.868751525878906,62.85000228881836,43.931251525878906
1770950698290196500,12.221196533203125,43.57500076293945,63.618751525878906,43.38750076293945
1770950698300196600,12.231196533203125,42.525001525878906,64.61250305175781,43.5
1770950698310196500,12.241196533203125,41.17500305175781,65.53125,43.125
1770950698320196600,12.251196533203125,40.275001525878906,66.41250610351562,42.84375
1770950698330196500,12.261196533203124,39.48750305175781,67.2750015258789,42.65625
1770950698350196500,12.281196533203126,38.025001525878906,68.85000610351562,42.16875076293945
1770950698360196600,12.291196533203125,37.3125,69.58125305175781,41.94375228881836
1770950698370196500,12.301196533203125,37.181251525878906,70.25625610351562,42
1770950698380196600,12.311196533203125,37.20000076293945,70.89375305175781,41.400001525878906
1770950698390196500,12.321196533203125,37.29375076293945,71.41875457763672,41.10000228881836
1770950698400196600,12.331196533203125,37.20000076293945,71.7750015258789,40.38750076293945
1770950698410196500,12.341196533203124,37.44375228881836,72,39.806251525878906
1770950698420196600,12.351196533203124,38.17500305175781,71.98125457763672,39.13125228881836
1770950698430196500,12.361196533203126,38.41875076293945,72.09375,39.056251525878906
1770950698440196600,12.371196533203126,39.01875305175781,72.22500610351562,38.92500305175781
1770950698450196500,12.381196533203125,39.69375228881836,72.50625610351562,38.212501525878906
1770950698460196600,12.391196533203125,40.21875,72.46875,37.743751525878906
1770950698470196500,12.401196533203125,40.837501525878906,72.58125305175781,37.462501525878906
1770950698480196600,12.411196533203125,41.64375305175781,72.88125610351562,37.462501525878906
1770950698490196500,12.421196533203124,42.31875228881836,73.125,37.51875305175781
1770950698500196600,12.431196533203124,42.5625,73.4625015258789,37.931251525878906
1770950698510196500,12.441196533203126,43.33125305175781,73.76250457763672,37.61250305175781
1770950698520196600,12.451196533203126,44.04375076293945,73.98750305175781,37.275001525878906
1770950698530196500,12.461196533203125,44.15625,74.08125305175781,37.44375228881836
1770950698540196600,12.471196533203125,44.04375076293945,74.4000015258789,37.556251525878906
1770950698550196500,12.481196533203125,43.98750305175781,74.8125,37.57500076293945
1770950698560196600,12.491196533203125,43.556251525878906,75.03750610351562,37.76250076293945
1770950698570196500,12.501196533203125,42.993751525878906,75.4312515258789,37.76250076293945
1770950698580196600,12.511196533203124,42.26250076293945,76.0875015258789,38.08125305175781
1770950698590196500,12.521196533203126,41.32500076293945,76.5,38.19375228881836
1770950698600196600,12.531196533203126,40.44375228881836,77.1187515258789,38.51250076293945
1770950698610196500,12.541196533203125,39.41250228881836,77.38125610351562,38.70000076293945
1770950698620196600,12.551196533203125,39.01875305175781,77.64375305175781,38.98125076293945
1770950698630196500,12.561196533203125,38.118751525878906,77.9625015258789,39.31875228881836
1770950698640196600,12.571196533203125,37.48125076293945,78.4312515258789,39.65625
1770950698650196500,12.581196533203125,36.84375,78.5625,39.993751525878906
1770950698660196600,12.591196533203124,36.243751525878906,78.2437515258789,39.82500076293945
1770950698670196500,12.601196533203124,35.70000076293945,78.31875610351562,40.087501525878906
1770950698680196600,12.611196533203126,35.15625,78.30000305175781,40.21875
1770950698690196500,12.621196533203126,34.96875,78.54375457763672,40.57500076293945
1770950698700196600,12.631196533203125,34.462501525878906,78.78750610351562,40.81875228881836
1770950698710196500,12.641196533203125,34.14375305175781,78.73125457763672,40.743751525878906
1770950698720196600,12.651196533203125,33.5625,78.41250610351562,40.59375
1770950698730196500,12.661196533203125,33.13125228881836,78.30000305175781,40.556251525878906
1770950698740196600,12.671196533203124,33.056251525878906,78.35625457763672,40.72500228881836
1770950698750196500,12.681196533203124,33.16875076293945,78.22500610351562,40.650001525878906
1770950698760196600,12.691196533203126,33.20625305175781,77.9625015258789,40.57500076293945
1770950698770196500,12.701196533203126,33.525001525878906,77.55000305175781,40.03125
1770950698780196600,12.711196533203125,33.82500076293945,77.0625,39.58125305175781
1770950698790196500,12.721196533203125,34.125,76.66875457763672,39.375
1770950698800196600,12.731196533203125,34.63125228881836,76.6500015258789,39.30000305175781
1770950698810196500,12.741196533203125,35.025001525878906,76.53750610351562,39.01875305175781
1770950698820196600,12.751196533203125,35.306251525878906,76.48125457763672,38.868751525878906
1770950698830196500,12.761196533203124,35.32500076293945,76.57500457763672,38.868751525878906
1770950698840196600,12.771196533203126,35.25,76.42500305175781,38.775001525878906
1770950698850196500,12.781196533203126,35.118751525878906,76.61250305175781,39.13125228881836
1770950698860196600,12.791196533203125,34.91250228881836,77.04375457763672,39.73125076293945
1770950698870196500,12.801196533203125,34.51875305175781,77.4937515258789,40.087501525878906
1770950698880196600,12.811196533203125,34.06875228881836,77.66250610351562,40.29375076293945
1770950698890196500,12.821196533203125,33.65625,77.71875,40.59375
1770950698900196600,12.831196533203125,33.46875,77.92500305175781,41.118751525878906
1770950698910196500,12.841196533203124,32.94375228881836,78.26250457763672,42.01875305175781
1770950698920196600,12.851196533203124,32.51250076293945,78.88125610351562,43.21875
1770950698930196500,12.861196533203126,32.10000228881836,79.3687515258789,44.17500305175781
1770950698940196600,12.871196533203126,31.650001525878906,79.70625305175781,44.83125305175781
1770950698950196500,12.881196533203125,31.668750762939453,80.00625610351562,45.69375228881836
1770950698960196600,12.891196533203125,31.593751907348633,80.36250305175781,46.5
1770950698970196500,12.901196533203125,31.406251907348633,80.75625610351562,47.25
1770950698980196600,12.911196533203125,30.900001525878906,81.22500610351562,47.75625228881836
1770950698990196500,12.921196533203124,30.843751907348633,81.22500610351562,48.03750228881836
1770950699000196600,12.931196533203124,30.693750381469727,81.1875,48.150001525878906
1770950699010196500,12.941196533203126,30.375001907348633,81.1875,48.187503814697266
1770950699020196600,12.951196533203126,30.356250762939453,81.22500610351562,48.31875228881836
1770950699030196500,12.961196533203125,29.906251907348633,81.3375015258789,48.69375228881836
1770950699040196600,12.971196533203125,29.45625114440918,81.28125,48.78750228881836
1770950699050196500,12.981196533203125,29.343751907348633,81.16875457763672,49.181251525878906
1770950699060196600,12.991196533203125,29.418750762939453,80.98125457763672,49.593753814697266
1770950699070196500,13.001196533203125,29.475000381469727,81.22500610351562,49.875003814697266
1770950699080196600,13.011196533203124,29.681251525878906,81.60000610351562,50.400001525878906
1770950699090196500,13.021196533203126,29.718751907348633,81.75,50.962501525878906
1770950699100196600,13.031196533203126,29.64375114440918,81.7125015258789,51.750003814697266
1770950699110196500,13.041196533203125,29.55000114440918,81.75,52.20000076293945
1770950699120196600,13.051196533203125,29.493751525878906,82.03125,53.36250305175781
1770950699130196500,13.061196533203125,29.193750381469727,82.2750015258789,54.281253814697266
1770950699140196600,13.071196533203125,28.725000381469727,82.42500305175781,55.16250228881836
1770950699150196500,13.081196533203125,28.256250381469727,82.35000610351562,56.41875076293945
1770950699160196600,13.091196533203124,27.731250762939453,81.9000015258789,56.94375228881836
1770950699170196500,13.101196533203124,27.48750114440918,81.60000610351562,57.76875305175781
1770950699180196600,13.111196533203126,27.037500381469727,81.5625,58.500003814697266
1770950699190196500,13.121196533203126,26.718751907348633,81.35625457763672,59.400001525878906
1770950699200196600,13.131196533203125,26.212501525878906,80.8687515258789,60.11250305175781
1770950699210196500,13.141196533203125,25.912500381469727,80.56875610351562,60.86250305175781
1770950699220196600,13.151196533203125,25.443750381469727,80.0250015258789,61.63125228881836
1770950699230196500,13.161196533203125,25.181251525878906,79.5,62.04375076293945
1770950699240196600,13.171196533203124,24.787500381469727,79.14375305175781,62.906253814697266
1770950699250196500,13.181196533203124,24.562501907348633,78.82500457763672,63.63750076293945
1770950699260196600,13.191196533203126,24.187501907348633,78.46875,64.48125457763672
1770950699270196500,13.201196533203126,24.187501907348633,77.88750457763672,64.9312515258789
1770950699280196600,13.211196533203125,24.262500762939453,77.47500610351562,65.32500457763672
1770950699290196500,13.221196533203125,24.243751525878906,77.04375457763672,65.51250457763672
1770950699300196600,13.231196533203125,24.39375114440918,76.80000305175781,65.79375457763672
1770950699310196500,13.241196533203125,24.525001525878906,76.48125457763672,65.83125305175781
1770950699320196600,13.251196533203125,24.787500381469727,76.4625015258789,66.16875457763672
1770950699330196500,13.261196533203124,24.656251907348633,76.14375305175781,66.16875457763672
1770950699340196600,13.271196533203126,24.712501525878906,75.6187515258789,65.8125
1770950699350196500,13.281196533203126,24.750001907348633,75.2437515258789,65.79375457763672
1770950699360196600,13.291196533203125,24.900001525878906,74.83125305175781,65.60625457763672
1770950699370196500,13.301196533203125,24.806251525878906,74.4937515258789,65.6812515258789
1770950699380196600,13.311196533203125,25.05000114440918,74.17500305175781,65.26875305175781
1770950699390196500,13.321196533203125,25.087501525878906,73.78125,65.17500305175781
1770950699400196600,13.331196533203125,24.975000381469727,73.3687515258789,64.8375015258789
1770950699410196500,13.341196533203124,24.975000381469727,73.10625457763672,64.96875
1770950699420196600,13.351196533203124,25.275001525878906,73.14375305175781,64.85625457763672
1770950699430196500,13.361196533203126,25.443750381469727,73.20000457763672,64.81875610351562
1770950699440196600,13.371196533203126,25.462501525878906,73.42500305175781,64.76250457763672
1770950699450196500,13.381196533203125,25.950000762939453,73.48125457763672,64.7437515258789
1770950699460196600,13.391196533203125,25.968751907348633,73.38750457763672,64.7437515258789
1770950699470196500,13.401196533203125,26.100000381469727,73.6875,64.81875610351562
1770950699480196600,13.411196533203125,26.475000381469727,73.875,64.63125610351562
1770950699490196500,13.421196533203124,26.906251907348633,74.0625,64.35000610351562
1770950699500196600,13.431196533203124,27.318750381469727,73.91250610351562,64.44375610351562
1770950699510196500,13.441196533203126,27.806251525878906,74.0625,64.40625
1770950699520196600,13.451196533203126,28.200000762939453,74.1187515258789,64.33125305175781
1770950699530196500,13.461196533203125,28.837501525878906,74.3062515258789,64.14375305175781
1770950699540196600,13.471196533203125,29.587501525878906,74.60625457763672,64.16250610351562
1770950699550196500,13.481196533203125,30.337501525878906,74.6812515258789,64.10625457763672
1770950699560196600,13.491196533203125,30.993751525878906,74.53125,63.97500228881836
1770950699570196500,13.501196533203125,31.631250381469727,74.71875,63.76875305175781
1770950699580196600,13.511196533203124,32.118751525878906,74.92500305175781,63.50625228881836
1770950699590196500,13.521196533203126,32.66250228881836,75.13125610351562,63.45000076293945
1770950699600196600,13.531196533203126,33.63750076293945,75.30000305175781,63.243751525878906
1770950699610196500,13.541196533203125,34.29375076293945,75.69375610351562,63.093753814697266
